language,ISO_code,thisN,thisTrialN,thisRepN,message,EN,ES,FR,hand,inst_pic,image_w,image_h,text_x,inst_msg_EN,inst_msg_ES,stim,sequence_code,sequence_type,trial_type,key_presses,sequence_picture,prompt_before,prompt,block_adv_resp.keys,block_adv_resp.rt,block_adv_resp.duration,adv_trial.keys,adv_trial.rt,adv_trial.duration,seq_resp.keys,seq_resp.rt,seq_resp.duration,self_assess_question_EN,label_min_EN,label_middle_EN,label_max_EN,self_assess_question_ES,label_min_ES,label_middle_ES,label_max_ES,slider.response,slider.rt,mouse_2.x,mouse_2.y,mouse_2.leftButton,mouse_2.midButton,mouse_2.rightButton,mouse_2.time,mouse_2.clicked_name,lang_loop.thisRepN,lang_loop.thisTrialN,lang_loop.thisN,lang_loop.thisIndex,messages_loop.thisRepN,messages_loop.thisTrialN,messages_loop.thisN,messages_loop.thisIndex,instructions_loop.thisRepN,instructions_loop.thisTrialN,instructions_loop.thisN,instructions_loop.thisIndex,blocks_loop.thisRepN,blocks_loop.thisTrialN,blocks_loop.thisN,blocks_loop.thisIndex,seq_loop.thisRepN,seq_loop.thisTrialN,seq_loop.thisN,seq_loop.thisIndex,self_assess_loop.thisRepN,self_assess_loop.thisTrialN,self_assess_loop.thisN,self_assess_loop.thisIndex,thisRow.t,notes,language_code,counterbalance.group,counterbalance.remaining,load_lg.started,load_lg.stopped,msg_name,msg_value,title_text.started,left_poly.started,right_poly.started,left_text.started,right_text.started,mouse.started,handedness,mouse.x,mouse.y,mouse.leftButton,mouse.midButton,mouse.rightButton,mouse.time,mouse.clicked_name,task_title.started,block_start.started,block_main_text.started,block_number_text.started,block_adv_resp.started,timer.started,block_start.stopped,block_number,block_pause,blocks_loop.block_adv_resp.keys,blocks_loop.block_adv_resp.rt,blocks_loop.block_adv_resp.duration,reps_per_block,sequence_selected,pre_trial.started,instruction.started,adv_trial.started,press_space_text.started,pre_trial.stopped,seq_loop.adv_trial.keys,seq_loop.adv_trial.rt,seq_loop.adv_trial.duration,seq_trial.started,fix_cross.started,seq_image.started,box_F.started,box_G.started,box_H.started,box_J.started,seq_resp.started,seq_trial.stopped,seq_typed,seq_acc,seq_time,seq_loop.seq_resp.keys,seq_loop.seq_resp.rt,seq_loop.seq_resp.duration,crit_counter,seq_fb.started,seq_fb_text.started,sound_corr.started,sound_incorr.started,sound_corr.stopped,sound_incorr.stopped,seq_fb.stopped,self_assess.started,self_assess_text.started,slider.started,label_0.started,label_5.started,label_10.started,mouse_2.started,next_poly.started,next_text.started,self_assess.stopped,self_assess_loop.slider.response,self_assess_loop.slider.rt,self_assess_loop.mouse_2.x,self_assess_loop.mouse_2.y,self_assess_loop.mouse_2.leftButton,self_assess_loop.mouse_2.midButton,self_assess_loop.mouse_2.rightButton,self_assess_loop.mouse_2.time,self_assess_loop.mouse_2.clicked_name,bye.started,bye_text.started,bye.stopped,participant,session,language,date,expName,expVersion,psychopyVersion,frameRate,expStart
English,,,,,,,,,,,,,,,,,,,,,,,,,,,,,,,,,,,,,,,,,,,,,,,,,,,,,,,,,,,,,,,,,,,,,,,,,,,,EN,0,0,,,,,,,,,,,,,,,,,,,,,,,,,,,,,,,,,,,,,,,,,,,,,,,,,,,,,,,,,,,,,,,,,,,,,,,,,,,,,,,,,,,,,,364563,001,English,2025-11-28_20h47.07.368,iFST,,2025.1.0,60.09301197,2025-11-28 20h47.19.589341 -0500
English,,,,,,,,,,,,,,,,,,,,,,,,,,,,,,,,,,,,,,,,,,,,,,,,,,,,,,,,,,,,,,,,,,,,,,,,,,,,,,,,,,,,,,,,,,,,,,,,,,,,,,,,,,,,,,,,,,,,,,,,,,,,,,,,,,,,,,,,,,,,,,,,,,,,,,,,,,,,,,,,,,,,364563,001,English,2025-11-28_20h47.07.368,iFST,,2025.1.0,60.09301197,2025-11-28 20h47.19.589341 -0500
English,FR,32,32,0,prompt_ima_msg,"IMAGINE this sequence
(press only the First/Last keys).","IMAGINA esta secuencia
(presiona solo la Primera/Última tecla)",x,,,,,,,,,,,,,,,,,,,,,,,,,,,,,,,,,,,,,,,,,,0,2,2,2,0,32,32,32,,,,,,,,,,,,,,,,,0.2456912,,EN,,,0.0503519,0.0505267,prompt_ima_msg,"IMAGINE this sequence
(press only the First/Last keys).",0.2456912,0.2456912,0.2456912,0.2456912,0.2456912,0.1636165,right,[np.float64(0.11296296296296296)],[np.float64(-0.2722222222222222)],[1],[0],[0],[1.3212735999986762],"['right_poly', 'right_poly']",,,,,,,,,,,,,,,,,,,,,,,,,,,,,,,,,,,,,,,,,,,,,,,,,,,,,,,,,,,,,,,,,,,,364563,001,English,2025-11-28_20h47.07.368,iFST,,2025.1.0,60.09301197,2025-11-28 20h47.19.589341 -0500
English,,0,0,0,,,,,right,images/seq_right.png,0,0,0,"The goal of the task is to complete the sequence as QUICKLY and ACCURATELY as you can, in both execution and imagery.

However, we ask you to PRIORITISE ACCURACY over speed. That is, try to complete the task as quickly as you can, while ensuring you  complete the sequence correctly.

You do not have to start typing or imagining immediately after the trial begins, but when you start the movement, try to complete it as quickly and accurately as you can.",Test7,1,fghjjhgf,simple,execution,8,stimuli/simple_execution_right.png,pre_prompt_exe_msg,prompt_exe_msg,space,1.6556641,None,space,0.6432529,None,"['f', 'g', 'h', 'j', 'j', 'h', 'g', 'f']","[0.9462003000007826, 1.17178419999982, 1.4141251999972155, 1.6380155000006198, 1.8922695000001113, 2.085688899998786, 2.3219104999952833, 2.5633577999979025]","[0.12393069999961881, 0.12982760000159033, 0.1482112000012421, 0.13622870000108378, 0.12955479999800446, 0.1564323999991757, 0.13418580000143265, None]",,,,,,,,,,,,,,,,,,,,,,,,,,0,12,12,12,0,0,0,0,0,0,0,0,,,,,11.8937288,,,,,,,,,,,,,,,right,,,,,,,,9.2540637,10.1494294,10.1557413,10.1557413,10.1557413,10.1557413,11.8252045,1,1,space,1.6556641,None,999,simple,11.8901656,11.8937288,11.8937288,11.8937288,12.5432457,space,0.6432529,None,12.5603488,12.5664711,12.5664711,12.5664711,12.5664711,12.5664711,12.5664711,12.5664711,15.1597848,fghjjhgf,1,1.62,"['f', 'g', 'h', 'j', 'j', 'h', 'g', 'f']","[0.9462003000007826, 1.17178419999982, 1.4141251999972155, 1.6380155000006198, 1.8922695000001113, 2.085688899998786, 2.3219104999952833, 2.5633577999979025]","[0.12393069999961881, 0.12982760000159033, 0.1482112000012421, 0.13622870000108378, 0.12955479999800446, 0.1564323999991757, 0.13418580000143265, None]",1,15.2225861,15.2257196,15.22406397,15.22406397,16.2363826,16.2363826,18.1587387,,,,,,,,,,,,,,,,,,,,,,,364563,001,English,2025-11-28_20h47.07.368,iFST,,2025.1.0,60.09301197,2025-11-28 20h47.19.589341 -0500
English,,1,1,0,,,,,right,,,,,,,2,ff,simple,imagery,2,stimuli/simple_imagery_right.png,pre_promt_ima_msg,prompt_ima_msg,space,1.6556641,None,space,0.596875,None,"['f', 'f']","[0.5932399999946938, 0.9533309999969788]","[0.15166250000038417, None]",,,,,,,,,,,,,,,,,,,,,,,,,,,,,,0,0,0,0,0,1,1,1,,,,,18.1792665,,,,,,,,,,,,,,,,,,,,,,,,,,,,,,,,,,,,,18.175248,18.1792665,18.1792665,18.1792665,18.792629,space,0.596875,None,18.8088744,18.8149385,18.8149385,18.8149385,18.8149385,18.8149385,18.8149385,18.8149385,19.7933686,ff,1,0.36,"['f', 'f']","[0.5932399999946938, 0.9533309999969788]","[0.15166250000038417, None]",1,19.8191237,19.8221674,19.82401433,19.82401433,20.8472307,20.8472307,22.7920779,,,,,,,,,,,,,,,,,,,,,,,364563,001,English,2025-11-28_20h47.07.368,iFST,,2025.1.0,60.09301197,2025-11-28 20h47.19.589341 -0500
English,,2,2,0,,,,,right,,,,,,,3,fjghhgjf,complex,execution,8,stimuli/complex_execution_right.png,pre_prompt_exe_msg,prompt_exe_msg,space,1.6556641,None,space,0.3926144,None,"['f', 'j', 'g', 'h', 'h', 'g', 'j', 'f']","[0.7522831000023871, 0.963956200001121, 1.1438974999982747, 1.3550448999958462, 1.5939040000012028, 1.772987500000454, 1.9600159999972675, 2.166947199999413]","[0.16352360000018962, 0.1442139999999199, 0.1432580999971833, 0.137395200006722, 0.13459109999530483, 0.16215599999850383, 0.15163530000427272, None]",,,,,,,,,,,,,,,,,,,,,,,,,,,,,,0,0,0,0,0,2,2,2,,,,,22.8071615,,,,,,,,,,,,,,,,,,,,,,,,,,,,,,,,,,,,,22.8003803,22.8071615,22.8071615,22.8071615,23.2101874,space,0.3926144,None,23.2273819,23.234557,23.234557,23.234557,23.234557,23.234557,23.234557,23.234557,25.4278207,fjghhgjf,1,1.41,"['f', 'j', 'g', 'h', 'h', 'g', 'j', 'f']","[0.7522831000023871, 0.963956200001121, 1.1438974999982747, 1.3550448999958462, 1.5939040000012028, 1.772987500000454, 1.9600159999972675, 2.166947199999413]","[0.16352360000018962, 0.1442139999999199, 0.1432580999971833, 0.137395200006722, 0.13459109999530483, 0.16215599999850383, 0.15163530000427272, None]",1,25.4555204,25.4586429,25.45732763,25.45732763,26.4670802,26.4670802,28.4251542,,,,,,,,,,,,,,,,,,,,,,,364563,001,English,2025-11-28_20h47.07.368,iFST,,2025.1.0,60.09301197,2025-11-28 20h47.19.589341 -0500
English,,3,3,0,,,,,right,,,,,,,4,ff,complex,imagery,2,stimuli/complex_imagery_right.png,pre_promt_ima_msg,prompt_ima_msg,space,1.6556641,None,space,0.4995392,None,"['f', 'f']","[0.6052360000030603, 2.596450000004552]","[0.13416809999762336, None]",,,,,,,,,,,,,,,,,,,,,,,,,,,,,,0,0,0,0,0,3,3,3,,,,,28.441202,,,,,,,,,,,,,,,,,,,,,,,,,,,,,,,,,,,,,28.4361659,28.441202,28.441202,28.441202,28.9433073,space,0.4995392,None,28.9859575,28.9963391,28.9963391,28.9963391,28.9963391,28.9963391,28.9963391,28.9963391,31.6109314,ff,1,1.99,"['f', 'f']","[0.6052360000030603, 2.596450000004552]","[0.13416809999762336, None]",1,31.6536189,31.6587161,31.6573687,31.6573687,32.6668564,32.6668564,34.6076588,,,,,,,,,,,,,,,,,,,,,,,364563,001,English,2025-11-28_20h47.07.368,iFST,,2025.1.0,60.09301197,2025-11-28 20h47.19.589341 -0500
English,,4,0,1,,,,,right,,,,,,,1,fghjjhgf,simple,execution,8,stimuli/simple_execution_right.png,pre_prompt_exe_msg,prompt_exe_msg,space,1.6556641,None,space,0.5652873,None,"['f', 'g', 'h', 'j', 'j', 'h', 'g', 'f']","[0.6220995000039693, 0.8402962000036496, 1.0693496000021696, 1.26456390000385, 1.5063032999969437, 1.6947635000033188, 1.9001757000005455, 2.1250075999996625]","[0.15255539999634493, 0.14369349999469705, 0.13826439999684226, 0.13423129999864614, 0.14132160000008298, 0.1740434999956051, 0.14368719999765744, None]",,,,,,,,,,,,,,,,,,,,,,,,,,,,,,0,0,0,0,1,0,4,0,,,,,34.6234156,,,,,,,,,,,,,,,,,,,,,,,,,,,,,,,,,,,,,34.6164919,34.6234156,34.6234156,34.6234156,35.1924194,space,0.5652873,None,35.2057915,35.214743,35.214743,35.214743,35.214743,35.214743,35.214743,35.214743,37.3619394,fghjjhgf,1,1.5,"['f', 'g', 'h', 'j', 'j', 'h', 'g', 'f']","[0.6220995000039693, 0.8402962000036496, 1.0693496000021696, 1.26456390000385, 1.5063032999969437, 1.6947635000033188, 1.9001757000005455, 2.1250075999996625]","[0.15255539999634493, 0.14369349999469705, 0.13826439999684226, 0.13423129999864614, 0.14132160000008298, 0.1740434999956051, 0.14368719999765744, None]",2,37.3965269,37.4022784,37.4071654,37.4071654,38.4170724,38.4170724,40.3584107,,,,,,,,,,,,,,,,,,,,,,,364563,001,English,2025-11-28_20h47.07.368,iFST,,2025.1.0,60.09301197,2025-11-28 20h47.19.589341 -0500
English,,5,1,1,,,,,right,,,,,,,2,ff,simple,imagery,2,stimuli/simple_imagery_right.png,pre_promt_ima_msg,prompt_ima_msg,space,1.6556641,None,space,0.5921058,None,"['f', 'f']","[1.1630482999971719, 2.9351327999975183]","[0.14519209999707527, None]",,,,,,,,,,,,,,,,,,,,,,,,,,,,,,0,0,0,0,1,1,5,1,,,,,40.3755898,,,,,,,,,,,,,,,,,,,,,,,,,,,,,,,,,,,,,40.3697249,40.3755898,40.3755898,40.3755898,40.9761546,space,0.5921058,None,40.9925108,40.9992485,40.9992485,40.9992485,40.9992485,40.9992485,40.9992485,40.9992485,43.9595829,ff,1,1.77,"['f', 'f']","[1.1630482999971719, 2.9351327999975183]","[0.14519209999707527, None]",2,43.9843501,43.9874464,43.99006433,43.99006433,44.9977598,44.9977598,46.9577236,,,,,,,,,,,,,,,,,,,,,,,364563,001,English,2025-11-28_20h47.07.368,iFST,,2025.1.0,60.09301197,2025-11-28 20h47.19.589341 -0500
English,,6,2,1,,,,,right,,,,,,,3,fjghhgjf,complex,execution,8,stimuli/complex_execution_right.png,pre_prompt_exe_msg,prompt_exe_msg,space,1.6556641,None,space,0.4588471,None,"['f', 'j', 'g', 'h', 'h', 'g', 'j', 'f']","[0.6035182999985409, 0.7764886000004481, 0.9644144000048982, 1.1466685000050347, 1.3352152000006754, 1.483575700003712, 1.6444203999999445, 1.7836242000048514]","[0.1377007000046433, 0.14431100000365404, 0.13380739999411162, 0.10961019999376731, 0.11000600000261329, 0.13008099999569822, 0.13227390000247397, None]",,,,,,,,,,,,,,,,,,,,,,,,,,,,,,0,0,0,0,1,2,6,2,,,,,46.9729818,,,,,,,,,,,,,,,,,,,,,,,,,,,,,,,,,,,,,46.9666571,46.9729818,46.9729818,46.9729818,47.4432463,space,0.4588471,None,47.4560684,47.4630862,47.4630862,47.4630862,47.4630862,47.4630862,47.4630862,47.4630862,49.2784129,fjghhgjf,1,1.18,"['f', 'j', 'g', 'h', 'h', 'g', 'j', 'f']","[0.6035182999985409, 0.7764886000004481, 0.9644144000048982, 1.1466685000050347, 1.3352152000006754, 1.483575700003712, 1.6444203999999445, 1.7836242000048514]","[0.1377007000046433, 0.14431100000365404, 0.13380739999411162, 0.10961019999376731, 0.11000600000261329, 0.13008099999569822, 0.13227390000247397, None]",2,49.3063727,49.3091156,49.30703813,49.30703813,50.3272265,50.3272265,52.274434,,,,,,,,,,,,,,,,,,,,,,,364563,001,English,2025-11-28_20h47.07.368,iFST,,2025.1.0,60.09301197,2025-11-28 20h47.19.589341 -0500
English,,7,3,1,,,,,right,,,,,,,4,ff,complex,imagery,2,stimuli/complex_imagery_right.png,pre_promt_ima_msg,prompt_ima_msg,space,1.6556641,None,space,0.4260703,None,"['f', 'f']","[0.7647968000019318, 2.1502333999960683]","[0.15179229999921517, None]",,,,,,,,,,,,,,,,,,,,,,,,,,,,,,0,0,0,0,1,3,7,3,,,,,52.2896708,,,,,,,,,,,,,,,,,,,,,,,,,,,,,,,,,,,,,52.2846271,52.2896708,52.2896708,52.2896708,52.7257289,space,0.4260703,None,52.747306,52.7546926,52.7546926,52.7546926,52.7546926,52.7546926,52.7546926,52.7546926,54.9284089,ff,1,1.39,"['f', 'f']","[0.7647968000019318, 2.1502333999960683]","[0.15179229999921517, None]",2,54.9568706,54.9606011,54.9735357,54.9735357,55.9873279,55.9873279,57.9242304,,,,,,,,,,,,,,,,,,,,,,,364563,001,English,2025-11-28_20h47.07.368,iFST,,2025.1.0,60.09301197,2025-11-28 20h47.19.589341 -0500
English,,0,0,0,,,,,right,,,,,,,1,fghjjhgf,simple,execution,8,stimuli/simple_execution_right.png,pre_prompt_exe_msg,prompt_exe_msg,space,0.8259848,None,space,0.7635426,None,"['f', 'g', 'h', 'j', 'j', 'h', 'g', 'f']","[0.6323260999997729, 0.7987370999981067, 1.003741499996977, 1.179534999995667, 1.3839337999961572, 1.5695426999955089, 1.7372785999978078, 1.9339368999935687]","[0.13373889999638777, 0.15325099999608938, 0.14269010000134585, 0.14331240000319667, 0.11534419999952661, 0.14459760000318056, 0.13799640000070212, None]",,,,,,,,,,,,,,,,,,,,,,,,,,,,,,1,0,1,0,0,0,0,0,,,,,58.8279051,,,,,,,,,,,,,,,,,,,,,,,,57.9657915,57.9692984,57.9692984,57.9692984,57.9692984,58.8093532,2,0,space,0.8259848,None,10,simple,58.824606,58.8279051,58.8279051,58.8279051,59.6084626,space,0.7635426,None,59.6201877,59.6263264,59.6263264,59.6263264,59.6263264,59.6263264,59.6263264,59.6263264,61.5929517,fghjjhgf,1,1.3,"['f', 'g', 'h', 'j', 'j', 'h', 'g', 'f']","[0.6323260999997729, 0.7987370999981067, 1.003741499996977, 1.179534999995667, 1.3839337999961572, 1.5695426999955089, 1.7372785999978078, 1.9339368999935687]","[0.13373889999638777, 0.15325099999608938, 0.14269010000134585, 0.14331240000319667, 0.11534419999952661, 0.14459760000318056, 0.13799640000070212, None]",,61.6117707,,,,,,61.6118121,,,,,,,,,,,,,,,,,,,,,,,364563,001,English,2025-11-28_20h47.07.368,iFST,,2025.1.0,60.09301197,2025-11-28 20h47.19.589341 -0500
English,,1,1,0,,,,,right,,,,,,,2,ff,simple,imagery,2,stimuli/simple_imagery_right.png,pre_promt_ima_msg,prompt_ima_msg,space,0.8259848,None,space,2.02999,None,"['f', 'f']","[1.138736400003836, 2.69710219999979]","[0.10219119999965187, None]",,,,,,,,,,,,,,,,,,,,,,,,,,,,,,1,0,1,0,0,1,1,1,,,,,61.6186334,,,,,,,,,,,,,,,,,,,,,,,,,,,,,,,,,,,,,61.6154348,61.6186334,61.6186334,61.6186334,63.658304,space,2.02999,None,63.6731404,63.6796797,63.6796797,63.6796797,63.6796797,63.6796797,63.6796797,63.6796797,66.410202,ff,1,1.56,"['f', 'f']","[1.138736400003836, 2.69710219999979]","[0.10219119999965187, None]",,66.4355476,,,,,,66.4355909,,,,,,,,,,,,,,,,,,,,,,,364563,001,English,2025-11-28_20h47.07.368,iFST,,2025.1.0,60.09301197,2025-11-28 20h47.19.589341 -0500
English,,2,2,0,,,,,right,,,,,,,3,fjghhgjf,complex,execution,8,stimuli/complex_execution_right.png,pre_prompt_exe_msg,prompt_exe_msg,space,0.8259848,None,None,,,None,,,,,,,,,,,,,,,,,,,,,,,,,,,,,,,,1,0,1,0,0,2,2,2,,,,,66.5025782,,,,,,,,,,,,,,,,,,,,,,,,,,,,,,,,,,,,,66.4388027,,,,66.4388286,None,,,66.4449128,,,,,,,,66.444958,,0,999,None,,,,66.4649173,,,,,,66.4649556,,,,,,,,,,,,,,,,,,,,,,,364563,001,English,2025-11-28_20h47.07.368,iFST,,2025.1.0,60.09301197,2025-11-28 20h47.19.589341 -0500
English,,3,3,0,,,,,right,,,,,,,4,ff,complex,imagery,2,stimuli/complex_imagery_right.png,pre_promt_ima_msg,prompt_ima_msg,space,0.8259848,None,None,,,None,,,,,,,,,,,,,,,,,,,,,,,,,,,,,,,,1,0,1,0,0,3,3,3,,,,,66.5025782,,,,,,,,,,,,,,,,,,,,,,,,,,,,,,,,,,,,,66.4687359,,,,66.4687654,None,,,66.475871,,,,,,,,66.4759138,,0,999,None,,,,66.4956202,,,,,,66.4956577,,,,,,,,,,,,,,,,,,,,,,,364563,001,English,2025-11-28_20h47.07.368,iFST,,2025.1.0,60.09301197,2025-11-28 20h47.19.589341 -0500
English,,4,0,1,,,,,right,,,,,,,1,fghjjhgf,simple,execution,8,stimuli/simple_execution_right.png,pre_prompt_exe_msg,prompt_exe_msg,space,0.8259848,None,space,1.6415579,None,"['f', 'g', 'h', 'j', 'j', 'h', 'g', 'f']","[2.3855741000006674, 2.5619495999999344, 2.764839600000414, 2.9599084000001312, 3.1746769999954267, 3.350607399996079, 3.5372570999970776, 3.7216810999962036]","[0.13218599999527214, 0.1423727000001236, 0.1343293999962043, 0.13158760000078473, 0.1183902000047965, 0.15105380000022706, 0.13424579999991693, None]",,,,,,,,,,,,,,,,,,,,,,,,,,,,,,1,0,1,0,1,0,4,0,,,,,66.5025782,,,,,,,,,,,,,,,,,,,,,,,,,,,,,,,,,,,,,66.4986605,66.5025782,66.5025782,66.5025782,68.1585016,space,1.6415579,None,68.17105,68.1767651,68.1767651,68.1767651,68.1767651,68.1767651,68.1767651,68.1767651,71.9269251,fghjjhgf,1,1.34,"['f', 'g', 'h', 'j', 'j', 'h', 'g', 'f']","[2.3855741000006674, 2.5619495999999344, 2.764839600000414, 2.9599084000001312, 3.1746769999954267, 3.350607399996079, 3.5372570999970776, 3.7216810999962036]","[0.13218599999527214, 0.1423727000001236, 0.1343293999962043, 0.13158760000078473, 0.1183902000047965, 0.15105380000022706, 0.13424579999991693, None]",,71.9546789,,,,,,71.9547192,,,,,,,,,,,,,,,,,,,,,,,364563,001,English,2025-11-28_20h47.07.368,iFST,,2025.1.0,60.09301197,2025-11-28 20h47.19.589341 -0500
English,,5,1,1,,,,,right,,,,,,,2,ff,simple,imagery,2,stimuli/simple_imagery_right.png,pre_promt_ima_msg,prompt_ima_msg,space,0.8259848,None,space,0.7992789,None,"['f', 'f']","[1.4996144999968237, 3.3096136000021943]","[0.1471603000027244, None]",,,,,,,,,,,,,,,,,,,,,,,,,,,,,,1,0,1,0,1,1,5,1,,,,,71.9623289,,,,,,,,,,,,,,,,,,,,,,,,,,,,,,,,,,,,,71.9583758,71.9623289,71.9623289,71.9623289,72.7747978,space,0.7992789,None,72.7876669,72.795885,72.795885,72.795885,72.795885,72.795885,72.795885,72.795885,76.126343,ff,1,1.81,"['f', 'f']","[1.4996144999968237, 3.3096136000021943]","[0.1471603000027244, None]",,76.1509669,,,,,,76.1510053,,,,,,,,,,,,,,,,,,,,,,,364563,001,English,2025-11-28_20h47.07.368,iFST,,2025.1.0,60.09301197,2025-11-28 20h47.19.589341 -0500
English,,6,2,1,,,,,right,,,,,,,3,fjghhgjf,complex,execution,8,stimuli/complex_execution_right.png,pre_prompt_exe_msg,prompt_exe_msg,space,0.8259848,None,None,,,None,,,,,,,,,,,,,,,,,,,,,,,,,,,,,,,,1,0,1,0,1,2,6,2,,,,,76.2183467,,,,,,,,,,,,,,,,,,,,,,,,,,,,,,,,,,,,,76.1539846,,,,76.1540105,None,,,76.1602516,,,,,,,,76.160295,,0,999,None,,,,76.1789605,,,,,,76.1790022,,,,,,,,,,,,,,,,,,,,,,,364563,001,English,2025-11-28_20h47.07.368,iFST,,2025.1.0,60.09301197,2025-11-28 20h47.19.589341 -0500
English,,7,3,1,,,,,right,,,,,,,4,ff,complex,imagery,2,stimuli/complex_imagery_right.png,pre_promt_ima_msg,prompt_ima_msg,space,0.8259848,None,None,,,None,,,,,,,,,,,,,,,,,,,,,,,,,,,,,,,,1,0,1,0,1,3,7,3,,,,,76.2183467,,,,,,,,,,,,,,,,,,,,,,,,,,,,,,,,,,,,,76.182724,,,,76.1827464,None,,,76.1919627,,,,,,,,76.1920081,,0,999,None,,,,76.2106403,,,,,,76.2106781,,,,,,,,,,,,,,,,,,,,,,,364563,001,English,2025-11-28_20h47.07.368,iFST,,2025.1.0,60.09301197,2025-11-28 20h47.19.589341 -0500
English,,8,0,2,,,,,right,,,,,,,1,fghjjhgf,simple,execution,8,stimuli/simple_execution_right.png,pre_prompt_exe_msg,prompt_exe_msg,space,0.8259848,None,space,1.4313671,None,"['f', 'g', 'h', 'j', 'j', 'h', 'g', 'f']","[1.0212674000067636, 1.1884354000067106, 1.378276100003859, 1.569671000004746, 1.7809806000004755, 1.9654027000069618, 2.1466436000046087, 2.330146100001002]","[0.12396029999945313, 0.14280259999941336, 0.16300860000046669, 0.1295324000020628, 0.11106810000637779, 0.1724216999937198, 0.13336269999854267, None]",,,,,,,,,,,,,,,,,,,,,,,,,,,,,,1,0,1,0,2,0,8,0,,,,,76.2183467,,,,,,,,,,,,,,,,,,,,,,,,,,,,,,,,,,,,,76.2138049,76.2183467,76.2183467,76.2183467,77.6589453,space,1.4313671,None,77.6712587,77.6771729,77.6771729,77.6771729,77.6771729,77.6771729,77.6771729,77.6771729,80.0404412,fghjjhgf,1,1.31,"['f', 'g', 'h', 'j', 'j', 'h', 'g', 'f']","[1.0212674000067636, 1.1884354000067106, 1.378276100003859, 1.569671000004746, 1.7809806000004755, 1.9654027000069618, 2.1466436000046087, 2.330146100001002]","[0.12396029999945313, 0.14280259999941336, 0.16300860000046669, 0.1295324000020628, 0.11106810000637779, 0.1724216999937198, 0.13336269999854267, None]",,80.059297,,,,,,80.0593393,,,,,,,,,,,,,,,,,,,,,,,364563,001,English,2025-11-28_20h47.07.368,iFST,,2025.1.0,60.09301197,2025-11-28 20h47.19.589341 -0500
English,,9,1,2,,,,,right,,,,,,,2,ff,simple,imagery,2,stimuli/simple_imagery_right.png,pre_promt_ima_msg,prompt_ima_msg,space,0.8259848,None,space,2.0460443,None,"['f', 'f']","[2.4284001999985776, 4.312280099999043]","[0.11908939999557333, None]",,,,,,,,,,,,,,,,,,,,,,,,,,,,,,1,0,1,0,2,1,9,1,,,,,80.0662808,,,,,,,,,,,,,,,,,,,,,,,,,,,,,,,,,,,,,80.0630483,80.0662808,80.0662808,80.0662808,82.1245073,space,2.0460443,None,82.1362628,82.1449669,82.1449669,82.1449669,82.1449669,82.1449669,82.1449669,82.1449669,86.4764951,ff,1,1.88,"['f', 'f']","[2.4284001999985776, 4.312280099999043]","[0.11908939999557333, None]",,86.5005534,,,,,,86.5005943,,,,,,,,,,,,,,,,,,,,,,,364563,001,English,2025-11-28_20h47.07.368,iFST,,2025.1.0,60.09301197,2025-11-28 20h47.19.589341 -0500
English,,10,2,2,,,,,right,,,,,,,3,fjghhgjf,complex,execution,8,stimuli/complex_execution_right.png,pre_prompt_exe_msg,prompt_exe_msg,space,0.8259848,None,None,,,None,,,,,,,,,,,,,,,,,,,,,,,,,,,,,,,,1,0,1,0,2,2,10,2,,,,,86.5705854,,,,,,,,,,,,,,,,,,,,,,,,,,,,,,,,,,,,,86.5035676,,,,86.5035945,None,,,86.5106232,,,,,,,,86.510668,,0,999,None,,,,86.5300855,,,,,,86.5301241,,,,,,,,,,,,,,,,,,,,,,,364563,001,English,2025-11-28_20h47.07.368,iFST,,2025.1.0,60.09301197,2025-11-28 20h47.19.589341 -0500
English,,11,3,2,,,,,right,,,,,,,4,ff,complex,imagery,2,stimuli/complex_imagery_right.png,pre_promt_ima_msg,prompt_ima_msg,space,0.8259848,None,None,,,None,,,,,,,,,,,,,,,,,,,,,,,,,,,,,,,,1,0,1,0,2,3,11,3,,,,,86.5705854,,,,,,,,,,,,,,,,,,,,,,,,,,,,,,,,,,,,,86.533764,,,,86.5337868,None,,,86.5430792,,,,,,,,86.5431229,,0,999,None,,,,86.5628676,,,,,,86.5629079,,,,,,,,,,,,,,,,,,,,,,,364563,001,English,2025-11-28_20h47.07.368,iFST,,2025.1.0,60.09301197,2025-11-28 20h47.19.589341 -0500
English,,12,0,3,,,,,right,,,,,,,1,fghjjhgf,simple,execution,8,stimuli/simple_execution_right.png,pre_prompt_exe_msg,prompt_exe_msg,space,0.8259848,None,space,0.7382039,None,"['f', 'g', 'h', 'j', 'j', 'h', 'g', 'f']","[0.8473780000058468, 1.0073412000056123, 1.2085765000010724, 1.408193700000993, 1.6148711000059848, 1.7701096000018879, 1.9369923000049312, 2.1183992000005674]","[0.13030799999978626, 0.16157949999615084, 0.16339629999856697, 0.1287101000052644, 0.11063419999845792, 0.1644430000014836, 0.14525899999716785, None]",,,,,,,,,,,,,,,,,,,,,,,,,,,,,,1,0,1,0,3,0,12,0,,,,,86.5705854,,,,,,,,,,,,,,,,,,,,,,,,,,,,,,,,,,,,,86.565838,86.5705854,86.5705854,86.5705854,87.3246332,space,0.7382039,None,87.3356953,87.3410419,87.3410419,87.3410419,87.3410419,87.3410419,87.3410419,87.3410419,89.4932395,fghjjhgf,1,1.27,"['f', 'g', 'h', 'j', 'j', 'h', 'g', 'f']","[0.8473780000058468, 1.0073412000056123, 1.2085765000010724, 1.408193700000993, 1.6148711000059848, 1.7701096000018879, 1.9369923000049312, 2.1183992000005674]","[0.13030799999978626, 0.16157949999615084, 0.16339629999856697, 0.1287101000052644, 0.11063419999845792, 0.1644430000014836, 0.14525899999716785, None]",,89.5213913,,,,,,89.5214347,,,,,,,,,,,,,,,,,,,,,,,364563,001,English,2025-11-28_20h47.07.368,iFST,,2025.1.0,60.09301197,2025-11-28 20h47.19.589341 -0500
English,,13,1,3,,,,,right,,,,,,,2,ff,simple,imagery,2,stimuli/simple_imagery_right.png,pre_promt_ima_msg,prompt_ima_msg,space,0.8259848,None,space,1.4731094,None,"['f', 'f']","[2.3306268000014825, 4.330336600003648]","[0.129761200005305, None]",,,,,,,,,,,,,,,,,,,,,,,,,,,,,,1,0,1,0,3,1,13,1,,,,,89.5289091,,,,,,,,,,,,,,,,,,,,,,,,,,,,,,,,,,,,,89.5253481,89.5289091,89.5289091,89.5289091,91.0093641,space,1.4731094,None,91.0221015,91.0294721,91.0294721,91.0294721,91.0294721,91.0294721,91.0294721,91.0294721,95.39298,ff,1,2,"['f', 'f']","[2.3306268000014825, 4.330336600003648]","[0.129761200005305, None]",,95.4179447,,,,,,95.4179877,,,,,,,,,,,,,,,,,,,,,,,364563,001,English,2025-11-28_20h47.07.368,iFST,,2025.1.0,60.09301197,2025-11-28 20h47.19.589341 -0500
English,,14,2,3,,,,,right,,,,,,,3,fjghhgjf,complex,execution,8,stimuli/complex_execution_right.png,pre_prompt_exe_msg,prompt_exe_msg,space,0.8259848,None,None,,,None,,,,,,,,,,,,,,,,,,,,,,,,,,,,,,,,1,0,1,0,3,2,14,2,,,,,95.4851675,,,,,,,,,,,,,,,,,,,,,,,,,,,,,,,,,,,,,95.4220576,,,,95.4220828,None,,,95.4276896,,,,,,,,95.4277334,,0,999,None,,,,95.4468803,,,,,,95.4469168,,,,,,,,,,,,,,,,,,,,,,,364563,001,English,2025-11-28_20h47.07.368,iFST,,2025.1.0,60.09301197,2025-11-28 20h47.19.589341 -0500
English,,15,3,3,,,,,right,,,,,,,4,ff,complex,imagery,2,stimuli/complex_imagery_right.png,pre_promt_ima_msg,prompt_ima_msg,space,0.8259848,None,None,,,None,,,,,,,,,,,,,,,,,,,,,,,,,,,,,,,,1,0,1,0,3,3,15,3,,,,,95.4851675,,,,,,,,,,,,,,,,,,,,,,,,,,,,,,,,,,,,,95.4509577,,,,95.4509811,None,,,95.4572661,,,,,,,,95.4573071,,0,999,None,,,,95.4765886,,,,,,95.4766319,,,,,,,,,,,,,,,,,,,,,,,364563,001,English,2025-11-28_20h47.07.368,iFST,,2025.1.0,60.09301197,2025-11-28 20h47.19.589341 -0500
English,,16,0,4,,,,,right,,,,,,,1,fghjjhgf,simple,execution,8,stimuli/simple_execution_right.png,pre_prompt_exe_msg,prompt_exe_msg,space,0.8259848,None,space,0.7528683,None,"['f', 'g', 'h', 'j', 'j', 'h', 'g', 'f']","[0.769210499995097, 0.9160325999982888, 1.0903776999984984, 1.2784707999962848, 1.4649608999970951, 1.581081099997391, 1.7192036999986158, 1.8866635000013048]","[0.11739769999985583, 0.14033829999971204, 0.17241240000294056, 0.1256548000019393, 0.10195789999852423, 0.1729269999996177, 0.13196569999854546, None]",,,,,,,,,,,,,,,,,,,,,,,,,,,,,,1,0,1,0,4,0,16,0,,,,,95.4851675,,,,,,,,,,,,,,,,,,,,,,,,,,,,,,,,,,,,,95.4804604,95.4851675,95.4851675,95.4851675,96.2419257,space,0.7528683,None,96.2535358,96.2592659,96.2592659,96.2592659,96.2592659,96.2592659,96.2592659,96.2592659,98.1753756,fghjjhgf,1,1.12,"['f', 'g', 'h', 'j', 'j', 'h', 'g', 'f']","[0.769210499995097, 0.9160325999982888, 1.0903776999984984, 1.2784707999962848, 1.4649608999970951, 1.581081099997391, 1.7192036999986158, 1.8866635000013048]","[0.11739769999985583, 0.14033829999971204, 0.17241240000294056, 0.1256548000019393, 0.10195789999852423, 0.1729269999996177, 0.13196569999854546, None]",,98.1964001,,,,,,98.196442,,,,,,,,,,,,,,,,,,,,,,,364563,001,English,2025-11-28_20h47.07.368,iFST,,2025.1.0,60.09301197,2025-11-28 20h47.19.589341 -0500
English,,17,1,4,,,,,right,,,,,,,2,ff,simple,imagery,2,stimuli/simple_imagery_right.png,pre_promt_ima_msg,prompt_ima_msg,space,0.8259848,None,space,1.6190371,None,"['f', 'f']","[1.7573562000034144, 3.179696999999578]","[0.13491619999695104, None]",,,,,,,,,,,,,,,,,,,,,,,,,,,,,,1,0,1,0,4,1,17,1,,,,,98.2036843,,,,,,,,,,,,,,,,,,,,,,,,,,,,,,,,,,,,,98.2003562,98.2036843,98.2036843,98.2036843,99.8403253,space,1.6190371,None,99.854744,99.862798,99.862798,99.862798,99.862798,99.862798,99.862798,99.862798,103.0754797,ff,1,1.42,"['f', 'f']","[1.7573562000034144, 3.179696999999578]","[0.13491619999695104, None]",,103.1005162,,,,,,103.1005552,,,,,,,,,,,,,,,,,,,,,,,364563,001,English,2025-11-28_20h47.07.368,iFST,,2025.1.0,60.09301197,2025-11-28 20h47.19.589341 -0500
English,,18,2,4,,,,,right,,,,,,,3,fjghhgjf,complex,execution,8,stimuli/complex_execution_right.png,pre_prompt_exe_msg,prompt_exe_msg,space,0.8259848,None,None,,,None,,,,,,,,,,,,,,,,,,,,,,,,,,,,,,,,1,0,1,0,4,2,18,2,,,,,103.1695143,,,,,,,,,,,,,,,,,,,,,,,,,,,,,,,,,,,,,103.1035725,,,,103.1036242,None,,,103.1097454,,,,,,,,103.1097959,,0,999,None,,,,103.1297837,,,,,,103.1298428,,,,,,,,,,,,,,,,,,,,,,,364563,001,English,2025-11-28_20h47.07.368,iFST,,2025.1.0,60.09301197,2025-11-28 20h47.19.589341 -0500
English,,19,3,4,,,,,right,,,,,,,4,ff,complex,imagery,2,stimuli/complex_imagery_right.png,pre_promt_ima_msg,prompt_ima_msg,space,0.8259848,None,None,,,None,,,,,,,,,,,,,,,,,,,,,,,,,,,,,,,,1,0,1,0,4,3,19,3,,,,,103.1695143,,,,,,,,,,,,,,,,,,,,,,,,,,,,,,,,,,,,,103.1336767,,,,103.1337012,None,,,103.141081,,,,,,,,103.1411276,,0,999,None,,,,103.1613376,,,,,,103.161378,,,,,,,,,,,,,,,,,,,,,,,364563,001,English,2025-11-28_20h47.07.368,iFST,,2025.1.0,60.09301197,2025-11-28 20h47.19.589341 -0500
English,,20,0,5,,,,,right,,,,,,,1,fghjjhgf,simple,execution,8,stimuli/simple_execution_right.png,pre_prompt_exe_msg,prompt_exe_msg,space,0.8259848,None,space,1.1603227,None,"['f', 'g', 'h', 'j', 'j', 'h', 'g', 'f']","[1.0302528999964125, 1.1306792999967001, 1.2886502999972436, 1.495735099997546, 1.6793784999972559, 1.8114243000018178, 1.963705399997707, 2.1105094000013196]","[0.11632290000125067, 0.19693160000315402, 0.16229700000258163, 0.10963460000493797, 0.1043435000028694, 0.15326839999761432, 0.12113720000343164, None]",,,,,,,,,,,,,,,,,,,,,,,,,,,,,,1,0,1,0,5,0,20,0,,,,,103.1695143,,,,,,,,,,,,,,,,,,,,,,,,,,,,,,,,,,,,,103.1650318,103.1695143,103.1695143,103.1695143,104.3418305,space,1.1603227,None,104.3523384,104.3577372,104.3577372,104.3577372,104.3577372,104.3577372,104.3577372,104.3577372,106.4920871,fghjjhgf,1,1.08,"['f', 'g', 'h', 'j', 'j', 'h', 'g', 'f']","[1.0302528999964125, 1.1306792999967001, 1.2886502999972436, 1.495735099997546, 1.6793784999972559, 1.8114243000018178, 1.963705399997707, 2.1105094000013196]","[0.11632290000125067, 0.19693160000315402, 0.16229700000258163, 0.10963460000493797, 0.1043435000028694, 0.15326839999761432, 0.12113720000343164, None]",,106.5126484,,,,,,106.5126901,,,,,,,,,,,,,,,,,,,,,,,364563,001,English,2025-11-28_20h47.07.368,iFST,,2025.1.0,60.09301197,2025-11-28 20h47.19.589341 -0500
English,,21,1,5,,,,,right,,,,,,,2,ff,simple,imagery,2,stimuli/simple_imagery_right.png,pre_promt_ima_msg,prompt_ima_msg,space,0.8259848,None,space,1.0176084,None,"['f', 'f']","[1.1145561000012094, 3.0638219000029494]","[0.12491079999745125, None]",,,,,,,,,,,,,,,,,,,,,,,,,,,,,,1,0,1,0,5,1,21,1,,,,,106.5194814,,,,,,,,,,,,,,,,,,,,,,,,,,,,,,,,,,,,,106.5163121,106.5194814,106.5194814,106.5194814,107.5414862,space,1.0176084,None,107.5534865,107.5616634,107.5616634,107.5616634,107.5616634,107.5616634,107.5616634,107.5616634,110.6599817,ff,1,1.95,"['f', 'f']","[1.1145561000012094, 3.0638219000029494]","[0.12491079999745125, None]",,110.6961108,,,,,,110.6961705,,,,,,,,,,,,,,,,,,,,,,,364563,001,English,2025-11-28_20h47.07.368,iFST,,2025.1.0,60.09301197,2025-11-28 20h47.19.589341 -0500
English,,22,2,5,,,,,right,,,,,,,3,fjghhgjf,complex,execution,8,stimuli/complex_execution_right.png,pre_prompt_exe_msg,prompt_exe_msg,space,0.8259848,None,None,,,None,,,,,,,,,,,,,,,,,,,,,,,,,,,,,,,,1,0,1,0,5,2,22,2,,,,,110.7896711,,,,,,,,,,,,,,,,,,,,,,,,,,,,,,,,,,,,,110.7019262,,,,110.7019723,None,,,110.7145202,,,,,,,,110.7146123,,0,999,None,,,,110.7497754,,,,,,110.7498265,,,,,,,,,,,,,,,,,,,,,,,364563,001,English,2025-11-28_20h47.07.368,iFST,,2025.1.0,60.09301197,2025-11-28 20h47.19.589341 -0500
English,,23,3,5,,,,,right,,,,,,,4,ff,complex,imagery,2,stimuli/complex_imagery_right.png,pre_promt_ima_msg,prompt_ima_msg,space,0.8259848,None,None,,,None,,,,,,,,,,,,,,,,,,,,,,,,,,,,,,,,1,0,1,0,5,3,23,3,,,,,110.7896711,,,,,,,,,,,,,,,,,,,,,,,,,,,,,,,,,,,,,110.7549469,,,,110.7549753,None,,,110.7615647,,,,,,,,110.7616139,,0,999,None,,,,110.7815463,,,,,,110.7816219,,,,,,,,,,,,,,,,,,,,,,,364563,001,English,2025-11-28_20h47.07.368,iFST,,2025.1.0,60.09301197,2025-11-28 20h47.19.589341 -0500
English,,24,0,6,,,,,right,,,,,,,1,fghjjhgf,simple,execution,8,stimuli/simple_execution_right.png,pre_prompt_exe_msg,prompt_exe_msg,space,0.8259848,None,space,0.8459531,None,"['f', 'g', 'h', 'j', 'j', 'h', 'g', 'f']","[0.7285391999976127, 0.8802863000018988, 1.0660093999977107, 1.1981988000043202, 1.3958845000015572, 1.522735400001693, 1.666380599999684, 1.8224332000027061]","[0.11909830000513466, 0.13385189999826252, 0.13620930000615772, 0.13506709999637678, 0.10964070000045467, 0.1884580999976606, 0.13468550000106916, None]",,,,,,,,,,,,,,,,,,,,,,,,,,,,,,1,0,1,0,6,0,24,0,,,,,110.7896711,,,,,,,,,,,,,,,,,,,,,,,,,,,,,,,,,,,,,110.7845877,110.7896711,110.7896711,110.7896711,111.6409003,space,0.8459531,None,111.6541923,111.6619507,111.6619507,111.6619507,111.6619507,111.6619507,111.6619507,111.6619507,113.5088468,fghjjhgf,1,1.09,"['f', 'g', 'h', 'j', 'j', 'h', 'g', 'f']","[0.7285391999976127, 0.8802863000018988, 1.0660093999977107, 1.1981988000043202, 1.3958845000015572, 1.522735400001693, 1.666380599999684, 1.8224332000027061]","[0.11909830000513466, 0.13385189999826252, 0.13620930000615772, 0.13506709999637678, 0.10964070000045467, 0.1884580999976606, 0.13468550000106916, None]",,113.5336906,,,,,,113.5337289,,,,,,,,,,,,,,,,,,,,,,,364563,001,English,2025-11-28_20h47.07.368,iFST,,2025.1.0,60.09301197,2025-11-28 20h47.19.589341 -0500
English,,25,1,6,,,,,right,,,,,,,2,ff,simple,imagery,2,stimuli/simple_imagery_right.png,pre_promt_ima_msg,prompt_ima_msg,space,0.8259848,None,space,1.74604,None,"['f', 'f']","[3.5285051000028034, 5.055952800001251]","[0.13520089999656193, None]",,,,,,,,,,,,,,,,,,,,,,,,,,,,,,1,0,1,0,6,1,25,1,,,,,113.5407258,,,,,,,,,,,,,,,,,,,,,,,,,,,,,,,,,,,,,113.5376389,113.5407258,113.5407258,113.5407258,115.2910795,space,1.74604,None,115.3055735,115.316709,115.316709,115.316709,115.316709,115.316709,115.316709,115.316709,120.3916405,ff,1,1.53,"['f', 'f']","[3.5285051000028034, 5.055952800001251]","[0.13520089999656193, None]",,120.4162489,,,,,,120.4162895,,,,,,,,,,,,,,,,,,,,,,,364563,001,English,2025-11-28_20h47.07.368,iFST,,2025.1.0,60.09301197,2025-11-28 20h47.19.589341 -0500
English,,26,2,6,,,,,right,,,,,,,3,fjghhgjf,complex,execution,8,stimuli/complex_execution_right.png,pre_prompt_exe_msg,prompt_exe_msg,space,0.8259848,None,None,,,None,,,,,,,,,,,,,,,,,,,,,,,,,,,,,,,,1,0,1,0,6,2,26,2,,,,,120.4820838,,,,,,,,,,,,,,,,,,,,,,,,,,,,,,,,,,,,,120.419745,,,,120.4197701,None,,,120.4257267,,,,,,,,120.4257783,,0,999,None,,,,120.4432212,,,,,,120.4432588,,,,,,,,,,,,,,,,,,,,,,,364563,001,English,2025-11-28_20h47.07.368,iFST,,2025.1.0,60.09301197,2025-11-28 20h47.19.589341 -0500
English,,27,3,6,,,,,right,,,,,,,4,ff,complex,imagery,2,stimuli/complex_imagery_right.png,pre_promt_ima_msg,prompt_ima_msg,space,0.8259848,None,None,,,None,,,,,,,,,,,,,,,,,,,,,,,,,,,,,,,,1,0,1,0,6,3,27,3,,,,,120.4820838,,,,,,,,,,,,,,,,,,,,,,,,,,,,,,,,,,,,,120.4470045,,,,120.4470275,None,,,120.4557878,,,,,,,,120.4558276,,0,999,None,,,,120.4741382,,,,,,120.4741766,,,,,,,,,,,,,,,,,,,,,,,364563,001,English,2025-11-28_20h47.07.368,iFST,,2025.1.0,60.09301197,2025-11-28 20h47.19.589341 -0500
English,,28,0,7,,,,,right,,,,,,,1,fghjjhgf,simple,execution,8,stimuli/simple_execution_right.png,pre_prompt_exe_msg,prompt_exe_msg,space,0.8259848,None,space,0.8260255,None,"['f', 'g', 'h', 'j', 'j', 'h', 'g', 'f']","[0.77030620000005, 0.9288251999969361, 1.0917300000000978, 1.2850191999968956, 1.5033385999995517, 1.6467087999990326, 1.797374799993122, 1.9534889999995357]","[0.10738699999637902, 0.12615650000225287, 0.14243559999886202, 0.13797550000163028, 0.09310079999704612, 0.1499584999983199, 0.11816670000553131, None]",,,,,,,,,,,,,,,,,,,,,,,,,,,,,,1,0,1,0,7,0,28,0,,,,,120.4820838,,,,,,,,,,,,,,,,,,,,,,,,,,,,,,,,,,,,,120.4771556,120.4820838,120.4820838,120.4820838,121.3240315,space,0.8260255,None,121.3358176,121.3415864,121.3415864,121.3415864,121.3415864,121.3415864,121.3415864,121.3415864,123.3247729,fghjjhgf,1,1.18,"['f', 'g', 'h', 'j', 'j', 'h', 'g', 'f']","[0.77030620000005, 0.9288251999969361, 1.0917300000000978, 1.2850191999968956, 1.5033385999995517, 1.6467087999990326, 1.797374799993122, 1.9534889999995357]","[0.10738699999637902, 0.12615650000225287, 0.14243559999886202, 0.13797550000163028, 0.09310079999704612, 0.1499584999983199, 0.11816670000553131, None]",,123.3456979,,,,,,123.3457376,,,,,,,,,,,,,,,,,,,,,,,364563,001,English,2025-11-28_20h47.07.368,iFST,,2025.1.0,60.09301197,2025-11-28 20h47.19.589341 -0500
English,,29,1,7,,,,,right,,,,,,,2,ff,simple,imagery,2,stimuli/simple_imagery_right.png,pre_promt_ima_msg,prompt_ima_msg,space,0.8259848,None,space,0.8842892,None,"['f', 'f']","[1.4197925000044052, 3.0162265000035404]","[0.15344119999645045, None]",,,,,,,,,,,,,,,,,,,,,,,,,,,,,,1,0,1,0,7,1,29,1,,,,,123.3528397,,,,,,,,,,,,,,,,,,,,,,,,,,,,,,,,,,,,,123.3493924,123.3528397,123.3528397,123.3528397,124.2403947,space,0.8842892,None,124.2543158,124.2620808,124.2620808,124.2620808,124.2620808,124.2620808,124.2620808,124.2620808,127.3074123,ff,1,1.6,"['f', 'f']","[1.4197925000044052, 3.0162265000035404]","[0.15344119999645045, None]",,127.3345957,,,,,,127.3346341,,,,,,,,,,,,,,,,,,,,,,,364563,001,English,2025-11-28_20h47.07.368,iFST,,2025.1.0,60.09301197,2025-11-28 20h47.19.589341 -0500
English,,30,2,7,,,,,right,,,,,,,3,fjghhgjf,complex,execution,8,stimuli/complex_execution_right.png,pre_prompt_exe_msg,prompt_exe_msg,space,0.8259848,None,None,,,None,,,,,,,,,,,,,,,,,,,,,,,,,,,,,,,,1,0,1,0,7,2,30,2,,,,,127.4096908,,,,,,,,,,,,,,,,,,,,,,,,,,,,,,,,,,,,,127.3376866,,,,127.3377127,None,,,127.3441596,,,,,,,,127.344217,,0,999,None,,,,127.3705545,,,,,,127.3705943,,,,,,,,,,,,,,,,,,,,,,,364563,001,English,2025-11-28_20h47.07.368,iFST,,2025.1.0,60.09301197,2025-11-28 20h47.19.589341 -0500
English,,31,3,7,,,,,right,,,,,,,4,ff,complex,imagery,2,stimuli/complex_imagery_right.png,pre_promt_ima_msg,prompt_ima_msg,space,0.8259848,None,None,,,None,,,,,,,,,,,,,,,,,,,,,,,,,,,,,,,,1,0,1,0,7,3,31,3,,,,,127.4096908,,,,,,,,,,,,,,,,,,,,,,,,,,,,,,,,,,,,,127.3742664,,,,127.3742913,None,,,127.3805537,,,,,,,,127.3805967,,0,999,None,,,,127.4005228,,,,,,127.4005723,,,,,,,,,,,,,,,,,,,,,,,364563,001,English,2025-11-28_20h47.07.368,iFST,,2025.1.0,60.09301197,2025-11-28 20h47.19.589341 -0500
English,,32,0,8,,,,,right,,,,,,,1,fghjjhgf,simple,execution,8,stimuli/simple_execution_right.png,pre_prompt_exe_msg,prompt_exe_msg,space,0.8259848,None,space,0.9184306,None,"['f', 'g', 'h', 'j', 'j', 'h', 'g', 'f']","[0.5884979999973439, 0.7333042999962345, 0.9291776000027312, 1.089381500001764, 1.2872717999998713, 1.415687100001378, 1.589309900002263, 1.7691909999994095]","[0.1228765000050771, 0.1528554000033182, 0.1356454999986454, 0.12471279999590479, 0.10695850000047358, 0.20149609999498352, 0.13774130000092555, None]",,,,,,,,,,,,,,,,,,,,,,,,,,,,,,1,0,1,0,8,0,32,0,,,,,127.4096908,,,,,,,,,,,,,,,,,,,,,,,,,,,,,,,,,,,,,127.4046436,127.4096908,127.4096908,127.4096908,128.3407029,space,0.9184306,None,128.3518316,128.3588372,128.3588372,128.3588372,128.3588372,128.3588372,128.3588372,128.3588372,130.1576142,fghjjhgf,1,1.18,"['f', 'g', 'h', 'j', 'j', 'h', 'g', 'f']","[0.5884979999973439, 0.7333042999962345, 0.9291776000027312, 1.089381500001764, 1.2872717999998713, 1.415687100001378, 1.589309900002263, 1.7691909999994095]","[0.1228765000050771, 0.1528554000033182, 0.1356454999986454, 0.12471279999590479, 0.10695850000047358, 0.20149609999498352, 0.13774130000092555, None]",,130.1804554,,,,,,130.1804964,,,,,,,,,,,,,,,,,,,,,,,364563,001,English,2025-11-28_20h47.07.368,iFST,,2025.1.0,60.09301197,2025-11-28 20h47.19.589341 -0500
English,,33,1,8,,,,,right,,,,,,,2,ff,simple,imagery,2,stimuli/simple_imagery_right.png,pre_promt_ima_msg,prompt_ima_msg,space,0.8259848,None,space,1.4425246,None,"['f', 'f']","[2.0307336000041687, 3.7196962000016356]","[0.15679300000192598, None]",,,,,,,,,,,,,,,,,,,,,,,,,,,,,,1,0,1,0,8,1,33,1,,,,,130.1878229,,,,,,,,,,,,,,,,,,,,,,,,,,,,,,,,,,,,,130.1845336,130.1878229,130.1878229,130.1878229,131.6412258,space,1.4425246,None,131.6541473,131.6605707,131.6605707,131.6605707,131.6605707,131.6605707,131.6605707,131.6605707,135.407314,ff,1,1.69,"['f', 'f']","[2.0307336000041687, 3.7196962000016356]","[0.15679300000192598, None]",,135.4324867,,,,,,135.4325305,,,,,,,,,,,,,,,,,,,,,,,364563,001,English,2025-11-28_20h47.07.368,iFST,,2025.1.0,60.09301197,2025-11-28 20h47.19.589341 -0500
English,,34,2,8,,,,,right,,,,,,,3,fjghhgjf,complex,execution,8,stimuli/complex_execution_right.png,pre_prompt_exe_msg,prompt_exe_msg,space,0.8259848,None,None,,,None,,,,,,,,,,,,,,,,,,,,,,,,,,,,,,,,1,0,1,0,8,2,34,2,,,,,135.4969893,,,,,,,,,,,,,,,,,,,,,,,,,,,,,,,,,,,,,135.4354637,,,,135.4354895,None,,,135.4415251,,,,,,,,135.4415743,,0,999,None,,,,135.4601365,,,,,,135.4601766,,,,,,,,,,,,,,,,,,,,,,,364563,001,English,2025-11-28_20h47.07.368,iFST,,2025.1.0,60.09301197,2025-11-28 20h47.19.589341 -0500
English,,35,3,8,,,,,right,,,,,,,4,ff,complex,imagery,2,stimuli/complex_imagery_right.png,pre_promt_ima_msg,prompt_ima_msg,space,0.8259848,None,None,,,None,,,,,,,,,,,,,,,,,,,,,,,,,,,,,,,,1,0,1,0,8,3,35,3,,,,,135.4969893,,,,,,,,,,,,,,,,,,,,,,,,,,,,,,,,,,,,,135.463828,,,,135.4638586,None,,,135.4702355,,,,,,,,135.4702789,,0,999,None,,,,135.4891202,,,,,,135.4891612,,,,,,,,,,,,,,,,,,,,,,,364563,001,English,2025-11-28_20h47.07.368,iFST,,2025.1.0,60.09301197,2025-11-28 20h47.19.589341 -0500
English,,36,0,9,,,,,right,,,,,,,1,fghjjhgf,simple,execution,8,stimuli/simple_execution_right.png,pre_prompt_exe_msg,prompt_exe_msg,space,0.8259848,None,space,0.7649185,None,"['f', 'g', 'h', 'j', 'j', 'h', 'g', 'f']","[0.842800400001579, 0.981043599997065, 1.1664316999958828, 1.329434699997364, 1.5303934999974445, 1.6744792999961646, 1.8218385000000126, 1.9823737999977311]","[0.1174721999996109, 0.15892140000505606, 0.15351960000407416, 0.13009510000119917, 0.11779020000540186, 0.18709170000511222, 0.1550573999993503, None]",,,,,,,,,,,,,,,,,,,,,,,,,,,,,,1,0,1,0,9,0,36,0,,,,,135.4969893,,,,,,,,,,,,,,,,,,,,,,,,,,,,,,,,,,,,,135.4923858,135.4969893,135.4969893,135.4969893,136.2730466,space,0.7649185,None,136.2845619,136.2901081,136.2901081,136.2901081,136.2901081,136.2901081,136.2901081,136.2901081,138.2915082,fghjjhgf,1,1.14,"['f', 'g', 'h', 'j', 'j', 'h', 'g', 'f']","[0.842800400001579, 0.981043599997065, 1.1664316999958828, 1.329434699997364, 1.5303934999974445, 1.6744792999961646, 1.8218385000000126, 1.9823737999977311]","[0.1174721999996109, 0.15892140000505606, 0.15351960000407416, 0.13009510000119917, 0.11779020000540186, 0.18709170000511222, 0.1550573999993503, None]",,138.3212837,,,,,,138.3213237,,,,,,,,,,,,,,,,,,,,,,,364563,001,English,2025-11-28_20h47.07.368,iFST,,2025.1.0,60.09301197,2025-11-28 20h47.19.589341 -0500
English,,37,1,9,,,,,right,,,,,,,2,ff,simple,imagery,2,stimuli/simple_imagery_right.png,pre_promt_ima_msg,prompt_ima_msg,space,0.8259848,None,space,1.1291351,None,"['f', 'f']","[2.2679283000034047, 3.7796432000031928]","[0.1364735000024666, None]",,,,,,,,,,,,,,,,,,,,,,,,,,,,,,1,0,1,0,9,1,37,1,,,,,138.3287527,,,,,,,,,,,,,,,,,,,,,,,,,,,,,,,,,,,,,138.3253463,138.3287527,138.3287527,138.3287527,139.4711839,space,1.1291351,None,139.485226,139.4963329,139.4963329,139.4963329,139.4963329,139.4963329,139.4963329,139.4963329,143.308327,ff,1,1.51,"['f', 'f']","[2.2679283000034047, 3.7796432000031928]","[0.1364735000024666, None]",,143.3336667,,,,,,143.333704,,,,,,,,,,,,,,,,,,,,,,,364563,001,English,2025-11-28_20h47.07.368,iFST,,2025.1.0,60.09301197,2025-11-28 20h47.19.589341 -0500
English,,38,2,9,,,,,right,,,,,,,3,fjghhgjf,complex,execution,8,stimuli/complex_execution_right.png,pre_prompt_exe_msg,prompt_exe_msg,space,0.8259848,None,None,,,None,,,,,,,,,,,,,,,,,,,,,,,,,,,,,,,,1,0,1,0,9,2,38,2,,,,,143.5678522,,,,,,,,,,,,,,,,,,,,,,,,,,,,,,,,,,,,,143.3368211,,,,143.3368456,None,,,143.342766,,,,,,,,143.3428089,,0,999,None,,,,143.3612336,,,,,,143.3612804,,,,,,,,,,,,,,,,,,,,,,,364563,001,English,2025-11-28_20h47.07.368,iFST,,2025.1.0,60.09301197,2025-11-28 20h47.19.589341 -0500
English,,39,3,9,,,,,right,,,,,,,4,ff,complex,imagery,2,stimuli/complex_imagery_right.png,pre_promt_ima_msg,prompt_ima_msg,space,0.8259848,None,None,,,None,,,,,,,,,,,,,,,,,,,,,,,,,,,,,,,,1,0,1,0,9,3,39,3,,,,,143.5678522,,,,,,,,,,,,,,,,,,,,,,,,,,,,,,,,,,,,,143.3649783,,,,143.3650022,None,,,143.3712635,,,,,,,,143.3713054,,0,999,None,,,,143.3897625,,,,,,143.3898067,,,,,,,,,,,,,,,,,,,,,,,364563,001,English,2025-11-28_20h47.07.368,iFST,,2025.1.0,60.09301197,2025-11-28 20h47.19.589341 -0500
English,,0,0,0,,,,,,,,,,,,,,,,,,,,space,0.8259848,None,,,,,,,"Please, respond the following questions about the imagery you performed in the LAST block.
Use the mouse.

In the last block, the INSTRUCTION when IMAGINING the movement was to use:","A visual
modality only","Both modalities
at the same time","A kinesthetic
modality only",s,s,s,s,5,3.1434982,[np.float64(0.3787037037037037)],[np.float64(-0.39166666666666666)],[1],[0],[0],[1.0675386000002618],"['next_poly', 'next_poly']",,,,,,,,,,,,,1,0,1,0,,,,,0,0,0,0,143.5678522,,,,,,,,,,,,,,,,,,,,,,,,,,,,,,,,,,,,,,,,,,,,,,,,,,,,,,,,,,,,,,,,,,,,143.5200594,143.5678522,143.5678522,143.5678522,143.5678522,143.5678522,3.2134202,146.6206739,146.6206739,147.6716934,5,3.1434982,[np.float64(0.3787037037037037)],[np.float64(-0.39166666666666666)],[1],[0],[0],[1.0675386000002618],"['next_poly', 'next_poly']",,,,364563,001,English,2025-11-28_20h47.07.368,iFST,,2025.1.0,60.09301197,2025-11-28 20h47.19.589341 -0500
English,,1,1,0,,,,,,,,,,,,,,,,,,,,space,0.8259848,None,,,,,,,"When imagining the movement, what was the OVERALL VIVIDNESS (considering BOTH the clarity of the image AND the intensity of the sensations)? Only if you did not feel or see anything at all, then select 0.","No image at all, you only
know"" that you were",,,,,,,,,,,,,,,,,,,,,,,,,,,,,,,,,,,,,,,,,,,,,,,,,,,,,,,,,,,,,,,,,,,,,,,,,,,,,,,,,,,,,,,,,,,,,,,,,,,,,,,,,,,,,,,,,,,,,,,,,,,,,,,,,,,,,,iFST,,,,
"thinking of the movement""",  ,"Perfectly clear and vivid as
normal vision and/or
feel of movement",s,s,  ,s,7,2.5525944,[np.float64(0.36203703703703705)],[np.float64(-0.3814814814814815)],[1],[0],[0],[1.0002647000001161],"['next_poly', 'next_poly']",,,,,,,,,,,,,1,0,1,0,,,,,0,1,1,1,147.7148805,,,,,,,,,,,,,,,,,,,,,,,,,,,,,,,,,,,,,,,,,,,,,,,,,,,,,,,,,,,,,,,,,,,,147.6973839,147.7148805,147.7148805,147.7148805,147.7148805,147.7148805,2.5814143,150.2698729,150.2698729,151.2541785,7,2.5525944,[np.float64(0.36203703703703705)],[np.float64(-0.3814814814814815)],[1],[0],[0],[1.0002647000001161],"['next_poly', 'next_poly']",,,,364563,001,English,2025-11-28_20h47.07.368,iFST_online2,,2025.1.0,60.09301197,2025-11-28 20h47.19.589341 -0500,,,,,,,,,,,,,,,,,,,,,,,,,,,,,,iFST,,,,
English,,2,2,0,,,,,,,,,,,,,,,,,,,,space,0.8259848,None,,,,,,,"When imagining the movement, did you imagine yourself making errors (e.g. pressing the wrong key)? Only if you imagined NO ERRORS in the WHOLE BLOCK, then select 0.","No errors, I was
completely accurate
during imagery",  ,"A lot of errors, I was
completely inaccurate
during imagery",s,s,  ,s,8,1.2645841,[np.float64(0.33425925925925926)],[np.float64(-0.4)],[1],[0],[0],[0.7500968000022112],"['next_poly', 'next_poly']",,,,,,,,,,,,,1,0,1,0,,,,,0,2,2,2,151.277581,,,,,,,,,,,,,,,,,,,,,,,,,,,,,,,,,,,,,,,,,,,,,,,,,,,,,,,,,,,,,,,,,,,,151.2611279,151.277581,151.277581,151.277581,151.277581,151.277581,1.2822461,152.5545452,152.5545452,153.287298,8,1.2645841,[np.float64(0.33425925925925926)],[np.float64(-0.4)],[1],[0],[0],[0.7500968000022112],"['next_poly', 'next_poly']",,,,364563,001,English,2025-11-28_20h47.07.368,iFST,,2025.1.0,60.09301197,2025-11-28 20h47.19.589341 -0500
English,,3,3,0,,,,,,,,,,,,,,,,,,,,space,0.8259848,None,,,,,,,"When imagining the movement, what was your use of the VISUAL MODALITY of imagery (creating a visual image of the movement)? Only if you did not use visual imagery at all, select 0"".""","No visual
imagery use",  ,"High visual
imagery use",s,s,  ,s,6,1.1287332,[np.float64(0.44722222222222224)],[np.float64(-0.41944444444444445)],[1],[0],[0],[1.2166970999969635],"['next_poly', 'next_poly']",,,,,,,,,,,,,1,0,1,0,,,,,0,3,3,3,153.3110134,,,,,,,,,,,,,,,,,,,,,,,,,,,,,,,,,,,,,,,,,,,,,,,,,,,,,,,,,,,,,,,,,,,,153.2954955,153.3110134,153.3110134,153.3110134,153.3110134,153.3110134,1.1491481,154.4530793,154.4530793,155.6539192,6,1.1287332,[np.float64(0.44722222222222224)],[np.float64(-0.41944444444444445)],[1],[0],[0],[1.2166970999969635],"['next_poly', 'next_poly']",,,,364563,001,English,2025-11-28_20h47.07.368,iFST,,2025.1.0,60.09301197,2025-11-28 20h47.19.589341 -0500
English,,4,4,0,,,,,,,,,,,,,,,,,,,,space,0.8259848,None,,,,,,,"If you used visual imagery, did you use a FIRST-PERSON PERSPECTIVE (watching the movement through the eyes of the performer, from an internal point of view)? If you selected 0 in the question before, then you must select 0 here as well.","No first-person (internal)
perspective use",  ,"High first-person (internal)
perspective use",s,s,  ,s,8,1.9321332,[np.float64(0.4462962962962963)],[np.float64(-0.40925925925925927)],[1],[0],[0],[0.7045047999999952],"['next_poly', 'next_poly']",,,,,,,,,,,,,1,0,1,0,,,,,0,4,4,4,155.67807,,,,,,,,,,,,,,,,,,,,,,,,,,,,,,,,,,,,,,,,,,,,,,,,,,,,,,,,,,,,,,,,,,,,155.6630257,155.67807,155.67807,155.67807,155.67807,155.67807,1.9494812,157.6197496,157.6197496,158.3091355,8,1.9321332,[np.float64(0.4462962962962963)],[np.float64(-0.40925925925925927)],[1],[0],[0],[0.7045047999999952],"['next_poly', 'next_poly']",,,,364563,001,English,2025-11-28_20h47.07.368,iFST,,2025.1.0,60.09301197,2025-11-28 20h47.19.589341 -0500
English,,5,5,0,,,,,,,,,,,,,,,,,,,,space,0.8259848,None,,,,,,,"If you used visual imagery, did you use a THIRD-PERSON PERSPECTIVE (watching yourself performing the movement, from an external point of view)? If you selected 0 in the question about general visual imagery use, then you must select 0 here as well.","No third-person (external)
perspective use",  ,"High third-person (external)
perspective use",s,s,  ,s,7,1.0574145,[np.float64(0.43796296296296294)],[np.float64(-0.40185185185185185)],[1],[0],[0],[0.8667821000053664],"['next_poly', 'next_poly']",,,,,,,,,,,,,1,0,1,0,,,,,0,5,5,5,158.3358741,,,,,,,,,,,,,,,,,,,,,,,,,,,,,,,,,,,,,,,,,,,,,,,,,,,,,,,,,,,,,,,,,,,,158.3182911,158.3358741,158.3358741,158.3358741,158.3358741,158.3358741,1.076883,159.4029002,159.4029002,160.2535253,7,1.0574145,[np.float64(0.43796296296296294)],[np.float64(-0.40185185185185185)],[1],[0],[0],[0.8667821000053664],"['next_poly', 'next_poly']",,,,364563,001,English,2025-11-28_20h47.07.368,iFST,,2025.1.0,60.09301197,2025-11-28 20h47.19.589341 -0500
English,,6,6,0,,,,,,,,,,,,,,,,,,,,space,0.8259848,None,,,,,,,"When imagining the movement, what was your use of the KINESTHETIC MODALITY of imagery (feeling the sensations of the movement)? Only if you did not use kinesthetic imagery at all, select 0"".""","No kinesthetic
imagery use",  ,"High kinesthetic
imagery use",s,s,  ,s,6,2.2016785,[np.float64(0.40185185185185185)],[np.float64(-0.41944444444444445)],[1],[0],[0],[0.7478182000049856],"['next_poly', 'next_poly']",,,,,,,,,,,,,1,0,1,0,,,,,0,6,6,6,160.2706974,,,,,,,,,,,,,,,,,,,,,,,,,,,,,,,,,,,,,,,,,,,,,,,,,,,,,,,,,,,,,,,,,,,,160.2559608,160.2706974,160.2706974,160.2706974,160.2706974,160.2706974,2.21845,162.485993,162.485993,163.2205197,6,2.2016785,[np.float64(0.40185185185185185)],[np.float64(-0.41944444444444445)],[1],[0],[0],[0.7478182000049856],"['next_poly', 'next_poly']",,,,364563,001,English,2025-11-28_20h47.07.368,iFST,,2025.1.0,60.09301197,2025-11-28 20h47.19.589341 -0500
English,,0,0,0,,,,,right,,,,,,,1,fghjjhgf,simple,execution,8,stimuli/simple_execution_right.png,pre_prompt_exe_msg,prompt_exe_msg,space,2.1068288,None,None,,,None,,,,,,,,,,,,,,,,,,,,,,,,,,,,,,,,2,0,2,0,0,0,0,0,,,,,165.4829129,,,,,,,,,,,,,,,,,,,,,,,,163.2388323,163.2412903,163.2412903,163.2412903,163.2412903,165.3557365,3,2,space,2.1068288,None,10,complex,165.4004393,,,,165.4004765,None,,,165.4108693,,,,,,,,165.4109342,,0,999,None,,,,165.4385496,,,,,,165.4385912,,,,,,,,,,,,,,,,,,,,,,,364563,001,English,2025-11-28_20h47.07.368,iFST,,2025.1.0,60.09301197,2025-11-28 20h47.19.589341 -0500
English,,1,1,0,,,,,right,,,,,,,2,ff,simple,imagery,2,stimuli/simple_imagery_right.png,pre_promt_ima_msg,prompt_ima_msg,space,2.1068288,None,None,,,None,,,,,,,,,,,,,,,,,,,,,,,,,,,,,,,,2,0,2,0,0,1,1,1,,,,,165.4829129,,,,,,,,,,,,,,,,,,,,,,,,,,,,,,,,,,,,,165.4459801,,,,165.4460085,None,,,165.4527958,,,,,,,,165.4528739,,0,999,None,,,,165.4748686,,,,,,165.4749144,,,,,,,,,,,,,,,,,,,,,,,364563,001,English,2025-11-28_20h47.07.368,iFST,,2025.1.0,60.09301197,2025-11-28 20h47.19.589341 -0500
English,,2,2,0,,,,,right,,,,,,,3,fjghhgjf,complex,execution,8,stimuli/complex_execution_right.png,pre_prompt_exe_msg,prompt_exe_msg,space,2.1068288,None,space,0.9403836,None,"['f', 'j', 'g', 'h', 'h', 'g', 'j', 'f']","[0.8062924000041676, 0.9303183000010904, 1.090403400005016, 1.2446202999999514, 1.428034700002172, 1.554194500000449, 1.7060960000017076, 1.8561947000052896]","[0.10916020000149729, 0.1243356000049971, 0.12384390000079293, 0.11031050000019604, 0.09920679999777349, 0.13768479999998817, 0.13644790000398643, None]",,,,,,,,,,,,,,,,,,,,,,,,,,,,,,2,0,2,0,0,2,2,2,,,,,165.4829129,,,,,,,,,,,,,,,,,,,,,,,,,,,,,,,,,,,,,165.4786061,165.4829129,165.4829129,165.4829129,166.4400056,space,0.9403836,None,166.454196,166.4651312,166.4651312,166.4651312,166.4651312,166.4651312,166.4651312,166.4651312,168.3390259,fjghhgjf,1,1.05,"['f', 'j', 'g', 'h', 'h', 'g', 'j', 'f']","[0.8062924000041676, 0.9303183000010904, 1.090403400005016, 1.2446202999999514, 1.428034700002172, 1.554194500000449, 1.7060960000017076, 1.8561947000052896]","[0.10916020000149729, 0.1243356000049971, 0.12384390000079293, 0.11031050000019604, 0.09920679999777349, 0.13768479999998817, 0.13644790000398643, None]",,168.3628573,,,,,,168.3628939,,,,,,,,,,,,,,,,,,,,,,,364563,001,English,2025-11-28_20h47.07.368,iFST,,2025.1.0,60.09301197,2025-11-28 20h47.19.589341 -0500
English,,3,3,0,,,,,right,,,,,,,4,ff,complex,imagery,2,stimuli/complex_imagery_right.png,pre_promt_ima_msg,prompt_ima_msg,space,2.1068288,None,space,0.7511073,None,"['f', 'f']","[0.6125402000034228, 2.251847200001066]","[0.09933440000168048, None]",,,,,,,,,,,,,,,,,,,,,,,,,,,,,,2,0,2,0,0,3,3,3,,,,,168.3700475,,,,,,,,,,,,,,,,,,,,,,,,,,,,,,,,,,,,,168.3665752,168.3700475,168.3700475,168.3700475,169.1387886,space,0.7511073,None,169.1531743,169.1592183,169.1592183,169.1592183,169.1592183,169.1592183,169.1592183,169.1592183,171.4390704,ff,1,1.64,"['f', 'f']","[0.6125402000034228, 2.251847200001066]","[0.09933440000168048, None]",,171.465871,,,,,,171.4659086,,,,,,,,,,,,,,,,,,,,,,,364563,001,English,2025-11-28_20h47.07.368,iFST,,2025.1.0,60.09301197,2025-11-28 20h47.19.589341 -0500
English,,4,0,1,,,,,right,,,,,,,1,fghjjhgf,simple,execution,8,stimuli/simple_execution_right.png,pre_prompt_exe_msg,prompt_exe_msg,space,2.1068288,None,None,,,None,,,,,,,,,,,,,,,,,,,,,,,,,,,,,,,,2,0,2,0,1,0,4,0,,,,,171.526454,,,,,,,,,,,,,,,,,,,,,,,,,,,,,,,,,,,,,171.4692476,,,,171.4692724,None,,,171.4746267,,,,,,,,171.4746696,,0,999,None,,,,171.4918449,,,,,,171.4918823,,,,,,,,,,,,,,,,,,,,,,,364563,001,English,2025-11-28_20h47.07.368,iFST,,2025.1.0,60.09301197,2025-11-28 20h47.19.589341 -0500
English,,5,1,1,,,,,right,,,,,,,2,ff,simple,imagery,2,stimuli/simple_imagery_right.png,pre_promt_ima_msg,prompt_ima_msg,space,2.1068288,None,None,,,None,,,,,,,,,,,,,,,,,,,,,,,,,,,,,,,,2,0,2,0,1,1,5,1,,,,,171.526454,,,,,,,,,,,,,,,,,,,,,,,,,,,,,,,,,,,,,171.4955212,,,,171.4955455,None,,,171.501787,,,,,,,,171.501835,,0,999,None,,,,171.5186327,,,,,,171.5186894,,,,,,,,,,,,,,,,,,,,,,,364563,001,English,2025-11-28_20h47.07.368,iFST,,2025.1.0,60.09301197,2025-11-28 20h47.19.589341 -0500
English,,6,2,1,,,,,right,,,,,,,3,fjghhgjf,complex,execution,8,stimuli/complex_execution_right.png,pre_prompt_exe_msg,prompt_exe_msg,space,2.1068288,None,space,0.6214994,None,"['f', 'j', 'g', 'h', 'h', 'g', 'j', 'f']","[0.6334470000001602, 0.7562044000005699, 0.9218525999967824, 1.0726706999994349, 1.2593620999978157, 1.3912395000006654, 1.540951099996164, 1.6689914999951725]","[0.09907149999344256, 0.12725359999603825, 0.12859790000220528, 0.12410829999862472, 0.11778580000100192, 0.12527789999876404, 0.12346010000328533, None]",,,,,,,,,,,,,,,,,,,,,,,,,,,,,,2,0,2,0,1,2,6,2,,,,,171.526454,,,,,,,,,,,,,,,,,,,,,,,,,,,,,,,,,,,,,171.5217442,171.526454,171.526454,171.526454,172.1555464,space,0.6214994,None,172.1673621,172.1728557,172.1728557,172.1728557,172.1728557,172.1728557,172.1728557,172.1728557,173.8728545,fjghhgjf,1,1.04,"['f', 'j', 'g', 'h', 'h', 'g', 'j', 'f']","[0.6334470000001602, 0.7562044000005699, 0.9218525999967824, 1.0726706999994349, 1.2593620999978157, 1.3912395000006654, 1.540951099996164, 1.6689914999951725]","[0.09907149999344256, 0.12725359999603825, 0.12859790000220528, 0.12410829999862472, 0.11778580000100192, 0.12527789999876404, 0.12346010000328533, None]",,173.8982333,,,,,,173.8982724,,,,,,,,,,,,,,,,,,,,,,,364563,001,English,2025-11-28_20h47.07.368,iFST,,2025.1.0,60.09301197,2025-11-28 20h47.19.589341 -0500
English,,7,3,1,,,,,right,,,,,,,4,ff,complex,imagery,2,stimuli/complex_imagery_right.png,pre_promt_ima_msg,prompt_ima_msg,space,2.1068288,None,space,1.3873492,None,"['f', 'f']","[2.4162106000003405, 4.222683699998015]","[0.13419089999661082, None]",,,,,,,,,,,,,,,,,,,,,,,,,,,,,,2,0,2,0,1,3,7,3,,,,,173.9056518,,,,,,,,,,,,,,,,,,,,,,,,,,,,,,,,,,,,,173.9023635,173.9056518,173.9056518,173.9056518,175.3055519,space,1.3873492,None,175.3183736,175.3245687,175.3245687,175.3245687,175.3245687,175.3245687,175.3245687,175.3245687,179.5726301,ff,1,1.81,"['f', 'f']","[2.4162106000003405, 4.222683699998015]","[0.13419089999661082, None]",,179.5978902,,,,,,179.5979295,,,,,,,,,,,,,,,,,,,,,,,364563,001,English,2025-11-28_20h47.07.368,iFST,,2025.1.0,60.09301197,2025-11-28 20h47.19.589341 -0500
English,,8,0,2,,,,,right,,,,,,,1,fghjjhgf,simple,execution,8,stimuli/simple_execution_right.png,pre_prompt_exe_msg,prompt_exe_msg,space,2.1068288,None,None,,,None,,,,,,,,,,,,,,,,,,,,,,,,,,,,,,,,2,0,2,0,2,0,8,0,,,,,179.6587816,,,,,,,,,,,,,,,,,,,,,,,,,,,,,,,,,,,,,179.6010858,,,,179.6011096,None,,,179.6065445,,,,,,,,179.6066048,,0,999,None,,,,179.6240594,,,,,,179.6241257,,,,,,,,,,,,,,,,,,,,,,,364563,001,English,2025-11-28_20h47.07.368,iFST,,2025.1.0,60.09301197,2025-11-28 20h47.19.589341 -0500
English,,9,1,2,,,,,right,,,,,,,2,ff,simple,imagery,2,stimuli/simple_imagery_right.png,pre_promt_ima_msg,prompt_ima_msg,space,2.1068288,None,None,,,None,,,,,,,,,,,,,,,,,,,,,,,,,,,,,,,,2,0,2,0,2,1,9,1,,,,,179.6587816,,,,,,,,,,,,,,,,,,,,,,,,,,,,,,,,,,,,,179.6278198,,,,179.6278462,None,,,179.633722,,,,,,,,179.6337756,,0,999,None,,,,179.6506879,,,,,,179.650725,,,,,,,,,,,,,,,,,,,,,,,364563,001,English,2025-11-28_20h47.07.368,iFST,,2025.1.0,60.09301197,2025-11-28 20h47.19.589341 -0500
English,,10,2,2,,,,,right,,,,,,,3,fjghhgjf,complex,execution,8,stimuli/complex_execution_right.png,pre_prompt_exe_msg,prompt_exe_msg,space,2.1068288,None,space,0.4641465,None,"['f', 'j', 'g', 'h', 'h', 'g', 'j', 'f']","[0.936561199996504, 1.0940661999993608, 1.2783506999985548, 1.4822660999998334, 1.6857837999996264, 1.8390454999971553, 2.0057662000035634, 2.157292399999278]","[0.13504730000568088, 0.13228430000162916, 0.1348645000034594, 0.11524030000146013, 0.11489810000057332, 0.14698430000134977, 0.13843379999889294, None]",,,,,,,,,,,,,,,,,,,,,,,,,,,,,,2,0,2,0,2,2,10,2,,,,,179.6587816,,,,,,,,,,,,,,,,,,,,,,,,,,,,,,,,,,,,,179.6538477,179.6587816,179.6587816,179.6587816,180.1398808,space,0.4641465,None,180.148586,180.1536388,180.1536388,180.1536388,180.1536388,180.1536388,180.1536388,180.1536388,182.3401889,fjghhgjf,1,1.22,"['f', 'j', 'g', 'h', 'h', 'g', 'j', 'f']","[0.936561199996504, 1.0940661999993608, 1.2783506999985548, 1.4822660999998334, 1.6857837999996264, 1.8390454999971553, 2.0057662000035634, 2.157292399999278]","[0.13504730000568088, 0.13228430000162916, 0.1348645000034594, 0.11524030000146013, 0.11489810000057332, 0.14698430000134977, 0.13843379999889294, None]",,182.3600598,,,,,,182.360096,,,,,,,,,,,,,,,,,,,,,,,364563,001,English,2025-11-28_20h47.07.368,iFST,,2025.1.0,60.09301197,2025-11-28 20h47.19.589341 -0500
English,,11,3,2,,,,,right,,,,,,,4,ff,complex,imagery,2,stimuli/complex_imagery_right.png,pre_promt_ima_msg,prompt_ima_msg,space,2.1068288,None,space,0.735614,None,"['f', 'f']","[1.1090655000007246, 2.963782100006938]","[0.1518595000015921, None]",,,,,,,,,,,,,,,,,,,,,,,,,,,,,,2,0,2,0,2,3,11,3,,,,,182.3668367,,,,,,,,,,,,,,,,,,,,,,,,,,,,,,,,,,,,,182.363795,182.3668367,182.3668367,182.3668367,183.1056141,space,0.735614,None,183.1218839,183.1287446,183.1287446,183.1287446,183.1287446,183.1287446,183.1287446,183.1287446,186.1238205,ff,1,1.85,"['f', 'f']","[1.1090655000007246, 2.963782100006938]","[0.1518595000015921, None]",,186.1588776,,,,,,186.158941,,,,,,,,,,,,,,,,,,,,,,,364563,001,English,2025-11-28_20h47.07.368,iFST,,2025.1.0,60.09301197,2025-11-28 20h47.19.589341 -0500
English,,12,0,3,,,,,right,,,,,,,1,fghjjhgf,simple,execution,8,stimuli/simple_execution_right.png,pre_prompt_exe_msg,prompt_exe_msg,space,2.1068288,None,None,,,None,,,,,,,,,,,,,,,,,,,,,,,,,,,,,,,,2,0,2,0,3,0,12,0,,,,,186.2264612,,,,,,,,,,,,,,,,,,,,,,,,,,,,,,,,,,,,,186.1644741,,,,186.1645121,None,,,186.1715221,,,,,,,,186.1715748,,0,999,None,,,,186.1892734,,,,,,186.1893124,,,,,,,,,,,,,,,,,,,,,,,364563,001,English,2025-11-28_20h47.07.368,iFST,,2025.1.0,60.09301197,2025-11-28 20h47.19.589341 -0500
English,,13,1,3,,,,,right,,,,,,,2,ff,simple,imagery,2,stimuli/simple_imagery_right.png,pre_promt_ima_msg,prompt_ima_msg,space,2.1068288,None,None,,,None,,,,,,,,,,,,,,,,,,,,,,,,,,,,,,,,2,0,2,0,3,1,13,1,,,,,186.2264612,,,,,,,,,,,,,,,,,,,,,,,,,,,,,,,,,,,,,186.1933263,,,,186.1933533,None,,,186.2012324,,,,,,,,186.2012827,,0,999,None,,,,186.2188956,,,,,,186.218935,,,,,,,,,,,,,,,,,,,,,,,364563,001,English,2025-11-28_20h47.07.368,iFST,,2025.1.0,60.09301197,2025-11-28 20h47.19.589341 -0500
English,,14,2,3,,,,,right,,,,,,,3,fjghhgjf,complex,execution,8,stimuli/complex_execution_right.png,pre_prompt_exe_msg,prompt_exe_msg,space,2.1068288,None,space,0.5446159,None,"['f', 'j', 'g', 'h', 'h', 'g', 'j', 'f']","[0.6402075000005425, 0.7738747999974294, 0.9509994999971241, 1.1312964000026113, 1.3264064000031794, 1.4671604000031948, 1.6318373999965843, 1.781137400001171]","[0.10947840000153519, 0.12663520000205608, 0.13358240000525257, 0.12372739999409532, 0.11508250000042608, 0.13403660000039963, 0.11421210000116844, None]",,,,,,,,,,,,,,,,,,,,,,,,,,,,,,2,0,2,0,3,2,14,2,,,,,186.2264612,,,,,,,,,,,,,,,,,,,,,,,,,,,,,,,,,,,,,186.2218678,186.2264612,186.2264612,186.2264612,186.7880376,space,0.5446159,None,186.7998881,186.8048562,186.8048562,186.8048562,186.8048562,186.8048562,186.8048562,186.8048562,188.6057595,fjghhgjf,1,1.14,"['f', 'j', 'g', 'h', 'h', 'g', 'j', 'f']","[0.6402075000005425, 0.7738747999974294, 0.9509994999971241, 1.1312964000026113, 1.3264064000031794, 1.4671604000031948, 1.6318373999965843, 1.781137400001171]","[0.10947840000153519, 0.12663520000205608, 0.13358240000525257, 0.12372739999409532, 0.11508250000042608, 0.13403660000039963, 0.11421210000116844, None]",,188.6291012,,,,,,188.6291383,,,,,,,,,,,,,,,,,,,,,,,364563,001,English,2025-11-28_20h47.07.368,iFST,,2025.1.0,60.09301197,2025-11-28 20h47.19.589341 -0500
English,,15,3,3,,,,,right,,,,,,,4,ff,complex,imagery,2,stimuli/complex_imagery_right.png,pre_promt_ima_msg,prompt_ima_msg,space,2.1068288,None,space,0.9461603,None,"['f', 'f']","[0.8478992000018479, 2.6235319999977946]","[0.14597069999581436, None]",,,,,,,,,,,,,,,,,,,,,,,,,,,,,,2,0,2,0,3,3,15,3,,,,,188.6361649,,,,,,,,,,,,,,,,,,,,,,,,,,,,,,,,,,,,,188.6327741,188.6361649,188.6361649,188.6361649,189.5897199,space,0.9461603,None,189.6026819,189.6099094,189.6099094,189.6099094,189.6099094,189.6099094,189.6099094,189.6099094,192.2539934,ff,1,1.78,"['f', 'f']","[0.8478992000018479, 2.6235319999977946]","[0.14597069999581436, None]",,192.2762949,,,,,,192.2763388,,,,,,,,,,,,,,,,,,,,,,,364563,001,English,2025-11-28_20h47.07.368,iFST,,2025.1.0,60.09301197,2025-11-28 20h47.19.589341 -0500
English,,16,0,4,,,,,right,,,,,,,1,fghjjhgf,simple,execution,8,stimuli/simple_execution_right.png,pre_prompt_exe_msg,prompt_exe_msg,space,2.1068288,None,None,,,None,,,,,,,,,,,,,,,,,,,,,,,,,,,,,,,,2,0,2,0,4,0,16,0,,,,,192.339807,,,,,,,,,,,,,,,,,,,,,,,,,,,,,,,,,,,,,192.279772,,,,192.2797956,None,,,192.2857232,,,,,,,,192.2857719,,0,999,None,,,,192.3031599,,,,,,192.3031978,,,,,,,,,,,,,,,,,,,,,,,364563,001,English,2025-11-28_20h47.07.368,iFST,,2025.1.0,60.09301197,2025-11-28 20h47.19.589341 -0500
English,,17,1,4,,,,,right,,,,,,,2,ff,simple,imagery,2,stimuli/simple_imagery_right.png,pre_promt_ima_msg,prompt_ima_msg,space,2.1068288,None,None,,,None,,,,,,,,,,,,,,,,,,,,,,,,,,,,,,,,2,0,2,0,4,1,17,1,,,,,192.339807,,,,,,,,,,,,,,,,,,,,,,,,,,,,,,,,,,,,,192.3069829,,,,192.3070143,None,,,192.3130001,,,,,,,,192.3130435,,0,999,None,,,,192.3316147,,,,,,192.3316519,,,,,,,,,,,,,,,,,,,,,,,364563,001,English,2025-11-28_20h47.07.368,iFST,,2025.1.0,60.09301197,2025-11-28 20h47.19.589341 -0500
English,,18,2,4,,,,,right,,,,,,,3,fjghhgjf,complex,execution,8,stimuli/complex_execution_right.png,pre_prompt_exe_msg,prompt_exe_msg,space,2.1068288,None,space,0.5644393,None,"['f', 'j', 'g', 'h', 'h', 'g', 'j', 'f']","[0.6711587000027066, 0.8050236999988556, 0.9737209000013536, 1.1430103000020608, 1.3276416000007885, 1.4711599000002025, 1.6211563000033493, 1.754069000002346]","[0.10572590000083437, 0.12808719999884488, 0.1274582999976701, 0.11928079999779584, 0.11266009999962989, 0.12360590000025695, 0.12815620000037597, None]",,,,,,,,,,,,,,,,,,,,,,,,,,,,,,2,0,2,0,4,2,18,2,,,,,192.339807,,,,,,,,,,,,,,,,,,,,,,,,,,,,,,,,,,,,,192.3348853,192.339807,192.339807,192.339807,192.9199098,space,0.5644393,None,192.9302127,192.9365187,192.9365187,192.9365187,192.9365187,192.9365187,192.9365187,192.9365187,194.7225575,fjghhgjf,1,1.08,"['f', 'j', 'g', 'h', 'h', 'g', 'j', 'f']","[0.6711587000027066, 0.8050236999988556, 0.9737209000013536, 1.1430103000020608, 1.3276416000007885, 1.4711599000002025, 1.6211563000033493, 1.754069000002346]","[0.10572590000083437, 0.12808719999884488, 0.1274582999976701, 0.11928079999779584, 0.11266009999962989, 0.12360590000025695, 0.12815620000037597, None]",,194.7481117,,,,,,194.7481483,,,,,,,,,,,,,,,,,,,,,,,364563,001,English,2025-11-28_20h47.07.368,iFST,,2025.1.0,60.09301197,2025-11-28 20h47.19.589341 -0500
English,,19,3,4,,,,,right,,,,,,,4,ff,complex,imagery,2,stimuli/complex_imagery_right.png,pre_promt_ima_msg,prompt_ima_msg,space,2.1068288,None,space,0.5930883,None,"['f', 'f']","[1.3308286000028602, 3.0950767999966047]","[0.11426959999516839, None]",,,,,,,,,,,,,,,,,,,,,,,,,,,,,,2,0,2,0,4,3,19,3,,,,,194.7560896,,,,,,,,,,,,,,,,,,,,,,,,,,,,,,,,,,,,,194.752796,194.7560896,194.7560896,194.7560896,195.3547812,space,0.5930883,None,195.3671992,195.3734803,195.3734803,195.3734803,195.3734803,195.3734803,195.3734803,195.3734803,198.4891905,ff,1,1.76,"['f', 'f']","[1.3308286000028602, 3.0950767999966047]","[0.11426959999516839, None]",,198.5162695,,,,,,198.5163188,,,,,,,,,,,,,,,,,,,,,,,364563,001,English,2025-11-28_20h47.07.368,iFST,,2025.1.0,60.09301197,2025-11-28 20h47.19.589341 -0500
English,,20,0,5,,,,,right,,,,,,,1,fghjjhgf,simple,execution,8,stimuli/simple_execution_right.png,pre_prompt_exe_msg,prompt_exe_msg,space,2.1068288,None,None,,,None,,,,,,,,,,,,,,,,,,,,,,,,,,,,,,,,2,0,2,0,5,0,20,0,,,,,198.5803292,,,,,,,,,,,,,,,,,,,,,,,,,,,,,,,,,,,,,198.5200918,,,,198.5201193,None,,,198.5256297,,,,,,,,198.5256892,,0,999,None,,,,198.5431185,,,,,,198.5431758,,,,,,,,,,,,,,,,,,,,,,,364563,001,English,2025-11-28_20h47.07.368,iFST,,2025.1.0,60.09301197,2025-11-28 20h47.19.589341 -0500
English,,21,1,5,,,,,right,,,,,,,2,ff,simple,imagery,2,stimuli/simple_imagery_right.png,pre_promt_ima_msg,prompt_ima_msg,space,2.1068288,None,None,,,None,,,,,,,,,,,,,,,,,,,,,,,,,,,,,,,,2,0,2,0,5,1,21,1,,,,,198.5803292,,,,,,,,,,,,,,,,,,,,,,,,,,,,,,,,,,,,,198.5470093,,,,198.5470313,None,,,198.5550014,,,,,,,,198.5550616,,0,999,None,,,,198.5723282,,,,,,198.5723625,,,,,,,,,,,,,,,,,,,,,,,364563,001,English,2025-11-28_20h47.07.368,iFST,,2025.1.0,60.09301197,2025-11-28 20h47.19.589341 -0500
English,,22,2,5,,,,,right,,,,,,,3,fjghhgjf,complex,execution,8,stimuli/complex_execution_right.png,pre_prompt_exe_msg,prompt_exe_msg,space,2.1068288,None,space,0.4750922,None,"['f', 'j', 'g', 'h', 'h', 'g', 'j', 'f']","[0.49046450000605546, 0.6105699000036111, 0.7775880000044708, 0.948361400005524, 1.131801000003179, 1.2611139000000549, 1.420071700005792, 1.558769300005224]","[0.10561319999396801, 0.12445699999807402, 0.11532769999757875, 0.09610519999841927, 0.11473069999919971, 0.13490620000084164, 0.12463479999860283, None]",,,,,,,,,,,,,,,,,,,,,,,,,,,,,,2,0,2,0,5,2,22,2,,,,,198.5803292,,,,,,,,,,,,,,,,,,,,,,,,,,,,,,,,,,,,,198.5754103,198.5803292,198.5803292,198.5803292,199.0719844,space,0.4750922,None,199.0839587,199.0889669,199.0889669,199.0889669,199.0889669,199.0889669,199.0889669,199.0889669,200.6710737,fjghhgjf,1,1.07,"['f', 'j', 'g', 'h', 'h', 'g', 'j', 'f']","[0.49046450000605546, 0.6105699000036111, 0.7775880000044708, 0.948361400005524, 1.131801000003179, 1.2611139000000549, 1.420071700005792, 1.558769300005224]","[0.10561319999396801, 0.12445699999807402, 0.11532769999757875, 0.09610519999841927, 0.11473069999919971, 0.13490620000084164, 0.12463479999860283, None]",,200.6919526,,,,,,200.6919915,,,,,,,,,,,,,,,,,,,,,,,364563,001,English,2025-11-28_20h47.07.368,iFST,,2025.1.0,60.09301197,2025-11-28 20h47.19.589341 -0500
English,,23,3,5,,,,,right,,,,,,,4,ff,complex,imagery,2,stimuli/complex_imagery_right.png,pre_promt_ima_msg,prompt_ima_msg,space,2.1068288,None,space,0.5406078,None,"['f', 'f']","[1.1805948999972316, 2.9338979000021936]","[0.13962629999878118, None]",,,,,,,,,,,,,,,,,,,,,,,,,,,,,,2,0,2,0,5,3,23,3,,,,,200.6991067,,,,,,,,,,,,,,,,,,,,,,,,,,,,,,,,,,,,,200.6957552,200.6991067,200.6991067,200.6991067,201.2543447,space,0.5406078,None,201.270377,201.2774074,201.2774074,201.2774074,201.2774074,201.2774074,201.2774074,201.2774074,204.238636,ff,1,1.75,"['f', 'f']","[1.1805948999972316, 2.9338979000021936]","[0.13962629999878118, None]",,204.2586846,,,,,,204.2587227,,,,,,,,,,,,,,,,,,,,,,,364563,001,English,2025-11-28_20h47.07.368,iFST,,2025.1.0,60.09301197,2025-11-28 20h47.19.589341 -0500
English,,24,0,6,,,,,right,,,,,,,1,fghjjhgf,simple,execution,8,stimuli/simple_execution_right.png,pre_prompt_exe_msg,prompt_exe_msg,space,2.1068288,None,None,,,None,,,,,,,,,,,,,,,,,,,,,,,,,,,,,,,,2,0,2,0,6,0,24,0,,,,,204.3242837,,,,,,,,,,,,,,,,,,,,,,,,,,,,,,,,,,,,,204.2618121,,,,204.261836,None,,,204.270412,,,,,,,,204.2704578,,0,999,None,,,,204.2873273,,,,,,204.2873634,,,,,,,,,,,,,,,,,,,,,,,364563,001,English,2025-11-28_20h47.07.368,iFST,,2025.1.0,60.09301197,2025-11-28 20h47.19.589341 -0500
English,,25,1,6,,,,,right,,,,,,,2,ff,simple,imagery,2,stimuli/simple_imagery_right.png,pre_promt_ima_msg,prompt_ima_msg,space,2.1068288,None,None,,,None,,,,,,,,,,,,,,,,,,,,,,,,,,,,,,,,2,0,2,0,6,1,25,1,,,,,204.3242837,,,,,,,,,,,,,,,,,,,,,,,,,,,,,,,,,,,,,204.2912261,,,,204.291251,None,,,204.2995017,,,,,,,,204.299542,,0,999,None,,,,204.3164027,,,,,,204.3164398,,,,,,,,,,,,,,,,,,,,,,,364563,001,English,2025-11-28_20h47.07.368,iFST,,2025.1.0,60.09301197,2025-11-28 20h47.19.589341 -0500
English,,26,2,6,,,,,right,,,,,,,3,fjghhgjf,complex,execution,8,stimuli/complex_execution_right.png,pre_prompt_exe_msg,prompt_exe_msg,space,2.1068288,None,space,0.4614467,None,"['f', 'j', 'g', 'h', 'h', 'g', 'j', 'f']","[0.5611126000003424, 0.6858112000045367, 0.8458743000010145, 1.0205198000039672, 1.206791800002975, 1.3402960000021267, 1.4913098000033642, 1.6396052999989479]","[0.11536830000113696, 0.12532639999699313, 0.12963270000182092, 0.09993060000124387, 0.11426650000066729, 0.1281059000029927, 0.13765309999871533, None]",,,,,,,,,,,,,,,,,,,,,,,,,,,,,,2,0,2,0,6,2,26,2,,,,,204.3242837,,,,,,,,,,,,,,,,,,,,,,,,,,,,,,,,,,,,,204.3196177,204.3242837,204.3242837,204.3242837,204.7875954,space,0.4614467,None,204.8006811,204.8064697,204.8064697,204.8064697,204.8064697,204.8064697,204.8064697,204.8064697,206.4704661,fjghhgjf,1,1.08,"['f', 'j', 'g', 'h', 'h', 'g', 'j', 'f']","[0.5611126000003424, 0.6858112000045367, 0.8458743000010145, 1.0205198000039672, 1.206791800002975, 1.3402960000021267, 1.4913098000033642, 1.6396052999989479]","[0.11536830000113696, 0.12532639999699313, 0.12963270000182092, 0.09993060000124387, 0.11426650000066729, 0.1281059000029927, 0.13765309999871533, None]",,206.4941076,,,,,,206.4941636,,,,,,,,,,,,,,,,,,,,,,,364563,001,English,2025-11-28_20h47.07.368,iFST,,2025.1.0,60.09301197,2025-11-28 20h47.19.589341 -0500
English,,27,3,6,,,,,right,,,,,,,4,ff,complex,imagery,2,stimuli/complex_imagery_right.png,pre_promt_ima_msg,prompt_ima_msg,space,2.1068288,None,space,0.8082739,None,"['f', 'f']","[2.0618700999984867, 3.6642384999940987]","[0.12813330000062706, None]",,,,,,,,,,,,,,,,,,,,,,,,,,,,,,2,0,2,0,6,3,27,3,,,,,206.5019437,,,,,,,,,,,,,,,,,,,,,,,,,,,,,,,,,,,,,206.4985906,206.5019437,206.5019437,206.5019437,207.3214358,space,0.8082739,None,207.3361885,207.3418201,207.3418201,207.3418201,207.3418201,207.3418201,207.3418201,207.3418201,211.0400405,ff,1,1.6,"['f', 'f']","[2.0618700999984867, 3.6642384999940987]","[0.12813330000062706, None]",,211.0652497,,,,,,211.0652931,,,,,,,,,,,,,,,,,,,,,,,364563,001,English,2025-11-28_20h47.07.368,iFST,,2025.1.0,60.09301197,2025-11-28 20h47.19.589341 -0500
English,,28,0,7,,,,,right,,,,,,,1,fghjjhgf,simple,execution,8,stimuli/simple_execution_right.png,pre_prompt_exe_msg,prompt_exe_msg,space,2.1068288,None,None,,,None,,,,,,,,,,,,,,,,,,,,,,,,,,,,,,,,2,0,2,0,7,0,28,0,,,,,211.1342262,,,,,,,,,,,,,,,,,,,,,,,,,,,,,,,,,,,,,211.068747,,,,211.0687735,None,,,211.0794847,,,,,,,,211.0795318,,0,999,None,,,,211.0959361,,,,,,211.0959714,,,,,,,,,,,,,,,,,,,,,,,364563,001,English,2025-11-28_20h47.07.368,iFST,,2025.1.0,60.09301197,2025-11-28 20h47.19.589341 -0500
English,,29,1,7,,,,,right,,,,,,,2,ff,simple,imagery,2,stimuli/simple_imagery_right.png,pre_promt_ima_msg,prompt_ima_msg,space,2.1068288,None,None,,,None,,,,,,,,,,,,,,,,,,,,,,,,,,,,,,,,2,0,2,0,7,1,29,1,,,,,211.1342262,,,,,,,,,,,,,,,,,,,,,,,,,,,,,,,,,,,,,211.0998047,,,,211.0998287,None,,,211.1079594,,,,,,,,211.1080009,,0,999,None,,,,211.1256813,,,,,,211.1257748,,,,,,,,,,,,,,,,,,,,,,,364563,001,English,2025-11-28_20h47.07.368,iFST,,2025.1.0,60.09301197,2025-11-28 20h47.19.589341 -0500
English,,30,2,7,,,,,right,,,,,,,3,fjghhgjf,complex,execution,8,stimuli/complex_execution_right.png,pre_prompt_exe_msg,prompt_exe_msg,space,2.1068288,None,space,0.4873296,None,"['f', 'j', 'g', 'h', 'h', 'g', 'j', 'f']","[0.5129142000005231, 0.6579034000023967, 1.2904265000033774, 1.4671904999995604, 1.7115553000039654, 1.9102516999992076, 2.082802700002503, 2.234571799999685]","[0.10988400000496767, 0.06880870000168215, 0.12835510000149952, 0.12832260000141105, 0.13416959999449318, 0.12773140000354033, 0.14711079999688081, None]",,,,,,,,,,,,,,,,,,,,,,,,,,,,,,2,0,2,0,7,2,30,2,,,,,211.1342262,,,,,,,,,,,,,,,,,,,,,,,,,,,,,,,,,,,,,211.1288919,211.1342262,211.1342262,211.1342262,211.6364351,space,0.4873296,None,211.6796762,211.694581,211.694581,211.694581,211.694581,211.694581,211.694581,211.694581,213.9531728,fjghhgjf,1,1.72,"['f', 'j', 'g', 'h', 'h', 'g', 'j', 'f']","[0.5129142000005231, 0.6579034000023967, 1.2904265000033774, 1.4671904999995604, 1.7115553000039654, 1.9102516999992076, 2.082802700002503, 2.234571799999685]","[0.10988400000496767, 0.06880870000168215, 0.12835510000149952, 0.12832260000141105, 0.13416959999449318, 0.12773140000354033, 0.14711079999688081, None]",,213.9816063,,,,,,213.9816493,,,,,,,,,,,,,,,,,,,,,,,364563,001,English,2025-11-28_20h47.07.368,iFST,,2025.1.0,60.09301197,2025-11-28 20h47.19.589341 -0500
English,,31,3,7,,,,,right,,,,,,,4,ff,complex,imagery,2,stimuli/complex_imagery_right.png,pre_promt_ima_msg,prompt_ima_msg,space,2.1068288,None,space,0.6641689,None,"['f', 'f']","[0.7472901000001002, 2.199003299996548]","[0.1482555999973556, None]",,,,,,,,,,,,,,,,,,,,,,,,,,,,,,2,0,2,0,7,3,31,3,,,,,213.9893032,,,,,,,,,,,,,,,,,,,,,,,,,,,,,,,,,,,,,213.9860339,213.9893032,213.9893032,213.9893032,214.6701476,space,0.6641689,None,214.6888436,214.6955736,214.6955736,214.6955736,214.6955736,214.6955736,214.6955736,214.6955736,216.9201331,ff,1,1.45,"['f', 'f']","[0.7472901000001002, 2.199003299996548]","[0.1482555999973556, None]",,216.9428775,,,,,,216.942923,,,,,,,,,,,,,,,,,,,,,,,364563,001,English,2025-11-28_20h47.07.368,iFST,,2025.1.0,60.09301197,2025-11-28 20h47.19.589341 -0500
English,,32,0,8,,,,,right,,,,,,,1,fghjjhgf,simple,execution,8,stimuli/simple_execution_right.png,pre_prompt_exe_msg,prompt_exe_msg,space,2.1068288,None,None,,,None,,,,,,,,,,,,,,,,,,,,,,,,,,,,,,,,2,0,2,0,8,0,32,0,,,,,217.0051903,,,,,,,,,,,,,,,,,,,,,,,,,,,,,,,,,,,,,216.9462621,,,,216.9462868,None,,,216.9520264,,,,,,,,216.9520738,,0,999,None,,,,216.9695666,,,,,,216.9696049,,,,,,,,,,,,,,,,,,,,,,,364563,001,English,2025-11-28_20h47.07.368,iFST,,2025.1.0,60.09301197,2025-11-28 20h47.19.589341 -0500
English,,33,1,8,,,,,right,,,,,,,2,ff,simple,imagery,2,stimuli/simple_imagery_right.png,pre_promt_ima_msg,prompt_ima_msg,space,2.1068288,None,None,,,None,,,,,,,,,,,,,,,,,,,,,,,,,,,,,,,,2,0,2,0,8,1,33,1,,,,,217.0051903,,,,,,,,,,,,,,,,,,,,,,,,,,,,,,,,,,,,,216.9732276,,,,216.973251,None,,,216.9790092,,,,,,,,216.9790534,,0,999,None,,,,216.9970977,,,,,,216.9971359,,,,,,,,,,,,,,,,,,,,,,,364563,001,English,2025-11-28_20h47.07.368,iFST,,2025.1.0,60.09301197,2025-11-28 20h47.19.589341 -0500
English,,34,2,8,,,,,right,,,,,,,3,fjghhgjf,complex,execution,8,stimuli/complex_execution_right.png,pre_prompt_exe_msg,prompt_exe_msg,space,2.1068288,None,space,0.5342146,None,"['f', 'j', 'g', 'h', 'h', 'g', 'j', 'f']","[0.7061209000021336, 0.8277094000004581, 0.9857609000027878, 1.1390958999982104, 1.325045700003102, 1.4389388999989023, 1.5858776000022772, 1.7223786000031396]","[0.10588879999704659, 0.12887819999741623, 0.12466129999666009, 0.11558900000090944, 0.09995659999549389, 0.13290039999992587, 0.12589930000103777, None]",,,,,,,,,,,,,,,,,,,,,,,,,,,,,,2,0,2,0,8,2,34,2,,,,,217.0051903,,,,,,,,,,,,,,,,,,,,,,,,,,,,,,,,,,,,,217.0005333,217.0051903,217.0051903,217.0051903,217.5522222,space,0.5342146,None,217.5628619,217.5685419,217.5685419,217.5685419,217.5685419,217.5685419,217.5685419,217.5685419,219.3221042,fjghhgjf,1,1.02,"['f', 'j', 'g', 'h', 'h', 'g', 'j', 'f']","[0.7061209000021336, 0.8277094000004581, 0.9857609000027878, 1.1390958999982104, 1.325045700003102, 1.4389388999989023, 1.5858776000022772, 1.7223786000031396]","[0.10588879999704659, 0.12887819999741623, 0.12466129999666009, 0.11558900000090944, 0.09995659999549389, 0.13290039999992587, 0.12589930000103777, None]",,219.3485011,,,,,,219.3485429,,,,,,,,,,,,,,,,,,,,,,,364563,001,English,2025-11-28_20h47.07.368,iFST,,2025.1.0,60.09301197,2025-11-28 20h47.19.589341 -0500
English,,35,3,8,,,,,right,,,,,,,4,ff,complex,imagery,2,stimuli/complex_imagery_right.png,pre_promt_ima_msg,prompt_ima_msg,space,2.1068288,None,space,0.8748464,None,"['f', 'f']","[2.286452200001804, 3.8981571000040276]","[0.12760569999954896, None]",,,,,,,,,,,,,,,,,,,,,,,,,,,,,,2,0,2,0,8,3,35,3,,,,,219.3562581,,,,,,,,,,,,,,,,,,,,,,,,,,,,,,,,,,,,,219.3531877,219.3562581,219.3562581,219.3562581,220.2359958,space,0.8748464,None,220.2469616,220.2547332,220.2547332,220.2547332,220.2547332,220.2547332,220.2547332,220.2547332,224.1886579,ff,1,1.61,"['f', 'f']","[2.286452200001804, 3.8981571000040276]","[0.12760569999954896, None]",,224.2189681,,,,,,224.2190141,,,,,,,,,,,,,,,,,,,,,,,364563,001,English,2025-11-28_20h47.07.368,iFST,,2025.1.0,60.09301197,2025-11-28 20h47.19.589341 -0500
English,,36,0,9,,,,,right,,,,,,,1,fghjjhgf,simple,execution,8,stimuli/simple_execution_right.png,pre_prompt_exe_msg,prompt_exe_msg,space,2.1068288,None,None,,,None,,,,,,,,,,,,,,,,,,,,,,,,,,,,,,,,2,0,2,0,9,0,36,0,,,,,224.2844003,,,,,,,,,,,,,,,,,,,,,,,,,,,,,,,,,,,,,224.2222261,,,,224.2222515,None,,,224.2274449,,,,,,,,224.227489,,0,999,None,,,,224.2471313,,,,,,224.2471704,,,,,,,,,,,,,,,,,,,,,,,364563,001,English,2025-11-28_20h47.07.368,iFST,,2025.1.0,60.09301197,2025-11-28 20h47.19.589341 -0500
English,,37,1,9,,,,,right,,,,,,,2,ff,simple,imagery,2,stimuli/simple_imagery_right.png,pre_promt_ima_msg,prompt_ima_msg,space,2.1068288,None,None,,,None,,,,,,,,,,,,,,,,,,,,,,,,,,,,,,,,2,0,2,0,9,1,37,1,,,,,224.2844003,,,,,,,,,,,,,,,,,,,,,,,,,,,,,,,,,,,,,224.2513313,,,,224.2513544,None,,,224.2572051,,,,,,,,224.2572459,,0,999,None,,,,224.2755711,,,,,,224.275609,,,,,,,,,,,,,,,,,,,,,,,364563,001,English,2025-11-28_20h47.07.368,iFST,,2025.1.0,60.09301197,2025-11-28 20h47.19.589341 -0500
English,,38,2,9,,,,,right,,,,,,,3,fjghhgjf,complex,execution,8,stimuli/complex_execution_right.png,pre_prompt_exe_msg,prompt_exe_msg,space,2.1068288,None,space,0.5686264,None,"['f', 'j', 'g', 'h', 'h', 'g', 'j', 'f']","[0.5357759999969858, 0.6696000999945682, 0.8193418999944697, 0.9867904999991879, 1.1633147999964422, 1.2941787999952794, 1.461399199994048, 1.5962001999942004]","[None, 0.12460840000130702, 0.13636989999940852, 0.11022070000035455, 0.121009900001809, 0.15156260000367183, 0.13386910000554053, None]",,,,,,,,,,,,,,,,,,,,,,,,,,,,,,2,0,2,0,9,2,38,2,,,,,224.2844003,,,,,,,,,,,,,,,,,,,,,,,,,,,,,,,,,,,,,224.2796129,224.2844003,224.2844003,224.2844003,224.8694818,space,0.5686264,None,224.8767831,224.8851498,224.8851498,224.8851498,224.8851498,224.8851498,224.8851498,224.8851498,226.5052984,fjghhgjf,1,1.06,"['f', 'j', 'g', 'h', 'h', 'g', 'j', 'f']","[0.5357759999969858, 0.6696000999945682, 0.8193418999944697, 0.9867904999991879, 1.1633147999964422, 1.2941787999952794, 1.461399199994048, 1.5962001999942004]","[None, 0.12460840000130702, 0.13636989999940852, 0.11022070000035455, 0.121009900001809, 0.15156260000367183, 0.13386910000554053, None]",,226.529425,,,,,,226.5294642,,,,,,,,,,,,,,,,,,,,,,,364563,001,English,2025-11-28_20h47.07.368,iFST,,2025.1.0,60.09301197,2025-11-28 20h47.19.589341 -0500
English,,39,3,9,,,,,right,,,,,,,4,ff,complex,imagery,2,stimuli/complex_imagery_right.png,pre_promt_ima_msg,prompt_ima_msg,space,2.1068288,None,space,0.7552517,None,"['f', 'f']","[2.9821825999970315, 4.634803300003114]","[None, None]",,,,,,,,,,,,,,,,,,,,,,,,,,,,,,2,0,2,0,9,3,39,3,,,,,226.5367875,,,,,,,,,,,,,,,,,,,,,,,,,,,,,,,,,,,,,226.5332493,226.5367875,226.5367875,226.5367875,227.301782,space,0.7552517,None,227.3080005,227.3190574,227.3190574,227.3190574,227.3190574,227.3190574,227.3190574,227.3190574,231.9872526,ff,1,1.65,"['f', 'f']","[2.9821825999970315, 4.634803300003114]","[None, None]",,232.0134452,,,,,,232.0134866,,,,,,,,,,,,,,,,,,,,,,,364563,001,English,2025-11-28_20h47.07.368,iFST,,2025.1.0,60.09301197,2025-11-28 20h47.19.589341 -0500
English,,0,0,0,,,,,,,,,,,,,,,,,,,,space,2.1068288,None,,,,,,,"Please, respond the following questions about the imagery you performed in the LAST block.
Use the mouse.

In the last block, the INSTRUCTION when IMAGINING the movement was to use:","A visual
modality only","Both modalities
at the same time","A kinesthetic
modality only",s,s,s,s,5,2.0807516,[np.float64(0.37222222222222223)],[np.float64(-0.3925925925925926)],[1],[0],[0],[0.8860511000020779],"['next_poly', 'next_poly']",,,,,,,,,,,,,2,0,2,0,,,,,0,0,0,0,232.0393359,,,,,,,,,,,,,,,,,,,,,,,,,,,,,,,,,,,,,,,,,,,,,,,,,,,,,,,,,,,,,,,,,,,,232.023234,232.0393359,232.0393359,232.0393359,232.0393359,232.0393359,2.1039249,234.1341543,234.1341543,235.0047531,5,2.0807516,[np.float64(0.37222222222222223)],[np.float64(-0.3925925925925926)],[1],[0],[0],[0.8860511000020779],"['next_poly', 'next_poly']",,,,364563,001,English,2025-11-28_20h47.07.368,iFST,,2025.1.0,60.09301197,2025-11-28 20h47.19.589341 -0500
English,,1,1,0,,,,,,,,,,,,,,,,,,,,space,2.1068288,None,,,,,,,"When imagining the movement, what was the OVERALL VIVIDNESS (considering BOTH the clarity of the image AND the intensity of the sensations)? Only if you did not feel or see anything at all, then select 0.","No image at all, you only
know"" that you were",,,,,,,,,,,,,,,,,,,,,,,,,,,,,,,,,,,,,,,,,,,,,,,,,,,,,,,,,,,,,,,,,,,,,,,,,,,,,,,,,,,,,,,,,,,,,,,,,,,,,,,,,,,,,,,,,,,,,,,,,,,,,,,,,,,,,,iFST,,,,
"thinking of the movement""",  ,"Perfectly clear and vivid as
normal vision and/or
feel of movement",s,s,  ,s,8,1.8798467,[np.float64(0.4046296296296296)],[np.float64(-0.3712962962962963)],[1],[0],[0],[1.0839882000000216],"['next_poly', 'next_poly']",,,,,,,,,,,,,2,0,2,0,,,,,0,1,1,1,235.0239125,,,,,,,,,,,,,,,,,,,,,,,,,,,,,,,,,,,,,,,,,,,,,,,,,,,,,,,,,,,,,,,,,,,,235.0077281,235.0239125,235.0239125,235.0239125,235.0239125,235.0239125,1.8959305,236.9174026,236.9174026,237.9854483,8,1.8798467,[np.float64(0.4046296296296296)],[np.float64(-0.3712962962962963)],[1],[0],[0],[1.0839882000000216],"['next_poly', 'next_poly']",,,,364563,001,English,2025-11-28_20h47.07.368,iFST_online2,,2025.1.0,60.09301197,2025-11-28 20h47.19.589341 -0500,,,,,,,,,,,,,,,,,,,,,,,,,,,,,,iFST,,,,
English,,2,2,0,,,,,,,,,,,,,,,,,,,,space,2.1068288,None,,,,,,,"When imagining the movement, did you imagine yourself making errors (e.g. pressing the wrong key)? Only if you imagined NO ERRORS in the WHOLE BLOCK, then select 0.","No errors, I was
completely accurate
during imagery",  ,"A lot of errors, I was
completely inaccurate
during imagery",s,s,  ,s,6,1.2168395,[np.float64(0.42592592592592593)],[np.float64(-0.4324074074074074)],[1],[0],[0],[0.6345863999958965],"['next_poly', 'next_poly']",,,,,,,,,,,,,2,0,2,0,,,,,0,2,2,2,238.0050909,,,,,,,,,,,,,,,,,,,,,,,,,,,,,,,,,,,,,,,,,,,,,,,,,,,,,,,,,,,,,,,,,,,,237.9886432,238.0050909,238.0050909,238.0050909,238.0050909,238.0050909,1.2317858,239.2340233,239.2340233,239.8528744,6,1.2168395,[np.float64(0.42592592592592593)],[np.float64(-0.4324074074074074)],[1],[0],[0],[0.6345863999958965],"['next_poly', 'next_poly']",,,,364563,001,English,2025-11-28_20h47.07.368,iFST,,2025.1.0,60.09301197,2025-11-28 20h47.19.589341 -0500
English,,3,3,0,,,,,,,,,,,,,,,,,,,,space,2.1068288,None,,,,,,,"When imagining the movement, what was your use of the VISUAL MODALITY of imagery (creating a visual image of the movement)? Only if you did not use visual imagery at all, select 0"".""","No visual
imagery use",  ,"High visual
imagery use",s,s,  ,s,8,0.9659177,[np.float64(0.4203703703703704)],[np.float64(-0.375)],[1],[0],[0],[0.6699280999964685],"['next_poly', 'next_poly']",,,,,,,,,,,,,2,0,2,0,,,,,0,3,3,3,239.8701204,,,,,,,,,,,,,,,,,,,,,,,,,,,,,,,,,,,,,,,,,,,,,,,,,,,,,,,,,,,,,,,,,,,,239.8551911,239.8701204,239.8701204,239.8701204,239.8701204,239.8701204,0.9810763,240.8508501,240.8508501,241.5047284,8,0.9659177,[np.float64(0.4203703703703704)],[np.float64(-0.375)],[1],[0],[0],[0.6699280999964685],"['next_poly', 'next_poly']",,,,364563,001,English,2025-11-28_20h47.07.368,iFST,,2025.1.0,60.09301197,2025-11-28 20h47.19.589341 -0500
English,,4,4,0,,,,,,,,,,,,,,,,,,,,space,2.1068288,None,,,,,,,"If you used visual imagery, did you use a FIRST-PERSON PERSPECTIVE (watching the movement through the eyes of the performer, from an internal point of view)? If you selected 0 in the question before, then you must select 0 here as well.","No first-person (internal)
perspective use",  ,"High first-person (internal)
perspective use",s,s,  ,s,9,0.8780596,[np.float64(0.387037037037037)],[np.float64(-0.38425925925925924)],[1],[0],[0],[0.6228569000013522],"['next_poly', 'next_poly']",,,,,,,,,,,,,2,0,2,0,,,,,0,4,4,4,241.524442,,,,,,,,,,,,,,,,,,,,,,,,,,,,,,,,,,,,,,,,,,,,,,,,,,,,,,,,,,,,,,,,,,,,241.5089464,241.524442,241.524442,241.524442,241.524442,241.524442,0.8958827,242.4172381,242.4172381,243.0247574,9,0.8780596,[np.float64(0.387037037037037)],[np.float64(-0.38425925925925924)],[1],[0],[0],[0.6228569000013522],"['next_poly', 'next_poly']",,,,364563,001,English,2025-11-28_20h47.07.368,iFST,,2025.1.0,60.09301197,2025-11-28 20h47.19.589341 -0500
English,,5,5,0,,,,,,,,,,,,,,,,,,,,space,2.1068288,None,,,,,,,"If you used visual imagery, did you use a THIRD-PERSON PERSPECTIVE (watching yourself performing the movement, from an external point of view)? If you selected 0 in the question about general visual imagery use, then you must select 0 here as well.","No third-person (external)
perspective use",  ,"High third-person (external)
perspective use",s,s,  ,s,3,2.2446472,[np.float64(0.34814814814814815)],[np.float64(-0.39166666666666666)],[1],[0],[0],[1.2218892000018968],"['next_poly', 'next_poly']",,,,,,,,,,,,,2,0,2,0,,,,,0,5,5,5,243.0483972,,,,,,,,,,,,,,,,,,,,,,,,,,,,,,,,,,,,,,,,,,,,,,,,,,,,,,,,,,,,,,,,,,,,243.0299455,243.0483972,243.0483972,243.0483972,243.0483972,243.0483972,2.2633936,245.3033961,245.3033961,246.5108217,3,2.2446472,[np.float64(0.34814814814814815)],[np.float64(-0.39166666666666666)],[1],[0],[0],[1.2218892000018968],"['next_poly', 'next_poly']",,,,364563,001,English,2025-11-28_20h47.07.368,iFST,,2025.1.0,60.09301197,2025-11-28 20h47.19.589341 -0500
English,,6,6,0,,,,,,,,,,,,,,,,,,,,space,2.1068288,None,,,,,,,"When imagining the movement, what was your use of the KINESTHETIC MODALITY of imagery (feeling the sensations of the movement)? Only if you did not use kinesthetic imagery at all, select 0"".""","No kinesthetic
imagery use",  ,"High kinesthetic
imagery use",s,s,  ,s,7,2.5557466,[np.float64(0.3787037037037037)],[np.float64(-0.3907407407407407)],[1],[0],[0],[0.7531498000025749],"['next_poly', 'next_poly']",,,,,,,,,,,,,2,0,2,0,,,,,0,6,6,6,246.53056,,,,,,,,,,,,,,,,,,,,,,,,,,,,,,,,,,,,,,,,,,,,,,,,,,,,,,,,,,,,,,,,,,,,246.5145155,246.53056,246.53056,246.53056,246.53056,246.53056,2.5726598,249.1006808,249.1006808,249.8375888,7,2.5557466,[np.float64(0.3787037037037037)],[np.float64(-0.3907407407407407)],[1],[0],[0],[0.7531498000025749],"['next_poly', 'next_poly']",,,,364563,001,English,2025-11-28_20h47.07.368,iFST,,2025.1.0,60.09301197,2025-11-28 20h47.19.589341 -0500
English,,,,,,,,,,,,,,,,,,,,,,,,,,,,,,,,,,,,,,,,,,,,,,,,,,,,,,,,,,,,,,,,,,,,,,,,,,,,,,,,,,,,,,,,,,,,,,,,,,,,,,,,,,,,,,,,,,,,,,,,,,,,,,,,,,,,,,,,,,,,,,,,,,,,,,,,,,,,,,,,,249.8478934,249.8508333,252.8350824,364563,001,English,2025-11-28_20h47.07.368,iFST,,2025.1.0,60.09301197,2025-11-28 20h47.19.589341 -0500
